timestamp,acc_x,acc_y,acc_z,rot_x,rot_y,rot_z
1738565141.335829,0.09775999188423157,-0.03529322147369385,-0.11834675073623657,-0.23425835371017456,0.7171717286109924,-0.6457037925720215
1738565141.3365998,0.10921698808670044,0.02247154712677002,-0.2289925217628479,-0.27881401777267456,1.034030556678772,-0.5359721779823303
1738565141.342369,0.14789876341819763,0.057668089866638184,-0.3388231098651886,-0.10140156745910645,1.2803043127059937,-0.37974074482917786
1738565141.362797,0.15444135665893555,0.12208843231201172,-0.3882101774215698,0.20337338745594025,1.3949270248413086,-0.21239016950130463
1738565141.3826818,0.1639494001865387,0.1760653853416443,-0.36036887764930725,0.47683775424957275,1.4615955352783203,-0.016462761908769608
1738565141.4025168,0.19761550426483154,0.2201727032661438,-0.2907215654850006,0.6513029336929321,1.5363065004348755,0.2542499899864197
1738565141.422748,0.23705872893333435,0.26193755865097046,-0.20722821354866028,0.7051865458488464,1.5790420770645142,0.6282036900520325
1738565141.445352,0.2797156870365143,0.2894214987754822,-0.13629817962646484,0.6901246905326843,1.6051150560379028,1.1077253818511963
1738565141.462559,0.2960679531097412,0.32576829195022583,-0.098244309425354,0.6347817778587341,1.481116771697998,1.6526529788970947
1738565141.482686,0.2664511203765869,0.3755069375038147,-0.050688132643699646,0.48905280232429504,1.272633671760559,2.154245376586914
1738565141.502719,0.23553580045700073,0.41522490978240967,0.004397392272949219,0.2493942677974701,1.1079121828079224,2.5959432125091553
1738565141.5227098,0.2226751744747162,0.453041672706604,0.03367334604263306,-0.020322561264038086,1.0114177465438843,3.0077853202819824
1738565141.545638,0.20851653814315796,0.512209951877594,0.01512540876865387,-0.2121986597776413,0.9875045418739319,3.4540584087371826
1738565141.562633,0.18064221739768982,0.5878807306289673,0.014983415603637695,-0.3682740032672882,0.9921280145645142,3.875560998916626
1738565141.5826821,0.11772698163986206,0.6545940637588501,0.0385054349899292,-0.5070170760154724,0.8766558766365051,4.117290019989014
1738565141.6024551,0.024855948984622955,0.6726515889167786,0.033539608120918274,-0.5149112939834595,0.645032525062561,4.079093933105469
1738565141.6226702,-0.038818612694740295,0.650161623954773,0.07369817793369293,-0.5036476254463196,0.3462814390659332,3.895437002182007
1738565141.6453562,-0.010649383068084717,0.6688469648361206,0.13303662836551666,-0.6184189915657043,0.04902293160557747,3.7619998455047607
1738565141.6627889,-0.0721413791179657,0.6748191714286804,0.15266694128513336,-0.7983056902885437,-0.3094039559364319,3.4485177993774414
1738565141.682938,-0.14251261949539185,0.636540412902832,0.18899184465408325,-1.0845955610275269,-0.6352565288543701,2.995760679244995
1738565141.702518,-0.13886848092079163,0.6670362949371338,0.3041888475418091,-1.756563425064087,-0.5658297538757324,2.7858848571777344
1738565141.7224941,-0.09261611104011536,0.717444658279419,0.3070659935474396,-2.441986560821533,-0.3542536199092865,2.752721071243286
1738565141.746068,-0.071988046169281,0.7147894501686096,0.1987312138080597,-2.805443525314331,-0.361388623714447,2.718146562576294
1738565141.762425,-0.057906925678253174,0.7264308929443359,0.0824618935585022,-2.8712821006774902,-0.5517118573188782,2.908612012863159
1738565141.782322,-0.09629219770431519,0.7868527173995972,0.041416049003601074,-2.887174606323242,-0.7275129556655884,3.2060766220092773
1738565141.8027759,-0.1748899221420288,0.7851782441139221,-0.012141704559326172,-2.8403265476226807,-0.9837000370025635,3.3283283710479736
1738565141.822291,-0.24132251739501953,0.763110339641571,0.002269923686981201,-2.9175233840942383,-1.2366374731063843,3.2640185356140137
1738565141.845845,-0.31355541944503784,0.7299096584320068,-0.040083110332489014,-2.944542407989502,-1.3930516242980957,3.171966075897217
1738565141.8631449,-0.3320225477218628,0.7699859738349915,-0.05997961759567261,-2.9810640811920166,-1.1867462396621704,3.195305109024048
1738565141.882553,-0.3074886202812195,0.7829285860061646,-0.016793638467788696,-3.1721065044403076,-0.6677429676055908,3.2763707637786865
1738565141.902399,-0.4207853078842163,0.7552454471588135,-0.08713531494140625,-3.261301040649414,-0.28595632314682007,3.1226117610931396
1738565141.922542,-0.6465660333633423,0.644297182559967,-0.19364210963249207,-3.1001029014587402,-0.3900224566459656,2.5499424934387207
1738565141.942237,-0.7222350239753723,0.6059399247169495,-0.15267786383628845,-3.0991947650909424,-0.39330920577049255,1.969295859336853
1738565141.962582,-0.7220356464385986,0.5971345901489258,-0.06553232669830322,-3.3894591331481934,0.103402279317379,1.3584288358688354
1738565141.982211,-0.7171509265899658,0.6063845157623291,0.03179442882537842,-3.9799716472625732,0.9929888248443604,0.7424238324165344
1738565142.003067,-0.6571496725082397,0.6107432842254639,-0.055846571922302246,-4.193554878234863,1.6010513305664062,0.06922120600938797
1738565142.022118,-0.6393158435821533,0.5791165232658386,-0.1536429524421692,-4.106686592102051,1.9120296239852905,-0.6989118456840515
1738565142.042206,-0.6082632541656494,0.6220694184303284,-0.09122788906097412,-4.283878326416016,2.171754837036133,-1.399731159210205
1738565142.063354,-0.49004125595092773,0.6437855362892151,-0.07997584342956543,-4.543911933898926,2.5370090007781982,-1.9094092845916748
1738565142.0821772,-0.33818548917770386,0.6807233095169067,-0.1369752287864685,-4.632457256317139,2.975935697555542,-2.2227234840393066
1738565142.102706,-0.22204577922821045,0.6232129335403442,-0.21645188331604004,-4.459468841552734,3.482109308242798,-2.502347946166992
1738565142.12239,-0.2228958010673523,0.5724983215332031,-0.21596145629882812,-4.134660720825195,3.5690078735351562,-2.8420398235321045
1738565142.142216,-0.23327994346618652,0.5446408987045288,-0.1798679232597351,-3.822066068649292,3.1303458213806152,-3.1218485832214355
1738565142.1630058,-0.28997814655303955,0.5516358613967896,-0.18368250131607056,-3.533308267593384,2.4352900981903076,-3.3861923217773438
1738565142.181962,-0.2996731996536255,0.5040801763534546,-0.24869537353515625,-3.1949822902679443,2.0191445350646973,-3.6364386081695557
1738565142.203901,-0.30109161138534546,0.47122693061828613,-0.28974705934524536,-2.9044618606567383,1.8557630777359009,-3.9125099182128906
1738565142.222008,-0.32403045892715454,0.4689391255378723,-0.3298250436782837,-2.644015073776245,1.9238831996917725,-4.246272087097168
1738565142.2419949,-0.3152680993080139,0.4872187376022339,-0.3595079779624939,-2.415740728378296,2.1720144748687744,-4.575429916381836
1738565142.2619739,-0.3420702815055847,0.49320513010025024,-0.3971650004386902,-2.1076769828796387,2.5038270950317383,-4.923070430755615
1738565142.2817512,-0.27245038747787476,0.5192765593528748,-0.47131145000457764,-1.5855047702789307,2.4069714546203613,-5.100193023681641
1738565142.301826,-0.19922137260437012,0.5253311395645142,-0.5075997114181519,-1.0043261051177979,2.1280736923217773,-5.08280086517334
1738565142.321779,-0.21118825674057007,0.5176630020141602,-0.5148518681526184,-0.4386427104473114,1.7169792652130127,-5.129451274871826
1738565142.3421779,-0.26829642057418823,0.5179723501205444,-0.5535369515419006,0.27035588026046753,1.0537667274475098,-5.35344934463501
1738565142.362081,-0.19950419664382935,0.5493555068969727,-0.5617541074752808,0.8364173173904419,0.6620429754257202,-5.41156005859375
1738565142.38208,-0.1075446605682373,0.5423295497894287,-0.42373836040496826,0.9375684261322021,1.2223525047302246,-5.172999858856201
1738565142.401732,-0.009946376085281372,0.5471060872077942,-0.2673983573913574,0.722431480884552,2.091165781021118,-4.6685333251953125
1738565142.422243,0.06267920136451721,0.5368669033050537,-0.237529456615448,0.6170331835746765,2.2529306411743164,-4.064300537109375
1738565142.441846,0.05628284811973572,0.47982150316238403,-0.3598673343658447,0.9350103139877319,2.0187394618988037,-3.538804054260254
1738565142.461863,0.03951901197433472,0.42624783515930176,-0.3970218896865845,1.3048125505447388,2.026050329208374,-3.0688066482543945
1738565142.481952,0.05571302771568298,0.43723243474960327,-0.33937448263168335,1.484392762184143,2.1818814277648926,-2.5590310096740723
1738565142.501817,-0.037410080432891846,0.4225001931190491,-0.3176679015159607,1.6248574256896973,2.493695020675659,-2.197760581970215
1738565142.521658,-0.1331886649131775,0.4229098856449127,-0.3026561737060547,1.8110790252685547,2.617905378341675,-1.9678531885147095
1738565142.541696,-0.18278245627880096,0.3975678086280823,-0.30118775367736816,2.036130905151367,2.468860387802124,-1.8131060600280762
1738565142.561583,-0.1920422613620758,0.38212206959724426,-0.21224385499954224,2.021430492401123,2.472188949584961,-1.6198492050170898
1738565142.581775,-0.09048549085855484,0.3788440227508545,-0.11065119504928589,1.7630850076675415,2.780087471008301,-1.191321611404419
1738565142.601825,-0.09802398085594177,0.36841851472854614,-0.12452024221420288,1.6478513479232788,3.081785202026367,-0.7983645796775818
1738565142.621711,-0.11926652491092682,0.3929777145385742,-0.14128166437149048,1.5650742053985596,3.2085154056549072,-0.4382849335670471
1738565142.6416578,-0.15064692497253418,0.3849375247955322,-0.18587720394134521,1.6988080739974976,3.2988388538360596,-0.1631545126438141
1738565142.662991,-0.14933356642723083,0.3808990716934204,-0.1949927806854248,1.921233892440796,3.187739610671997,0.156483456492424
1738565142.6815581,-0.16916990280151367,0.4040871858596802,-0.15738070011138916,2.0342609882354736,2.978414297103882,0.4557325839996338
1738565142.7027512,-0.1678255796432495,0.40555936098098755,-0.0952414870262146,1.9898544549942017,2.979215383529663,0.7746356129646301
1738565142.721389,-0.15781423449516296,0.42108339071273804,-0.08302968740463257,1.9632543325424194,3.0476577281951904,1.0836328268051147
1738565142.74142,-0.17904353141784668,0.43002963066101074,-0.07101994752883911,1.8877506256103516,3.0147807598114014,1.3374043703079224
1738565142.762772,-0.2088620662689209,0.41878485679626465,-0.07894766330718994,1.8572580814361572,2.9856278896331787,1.5600801706314087
1738565142.781297,-0.22798091173171997,0.4109305739402771,-0.10557565093040466,1.9136862754821777,2.9268314838409424,1.7423980236053467
1738565142.801354,-0.24576407670974731,0.4033106565475464,-0.09624150395393372,1.9799132347106934,2.773839235305786,1.8888412714004517
1738565142.821527,-0.2438415288925171,0.42185062170028687,-0.04333007335662842,1.8618526458740234,2.702625036239624,2.0570597648620605
1738565142.8415918,-0.30107924342155457,0.43247735500335693,0.027297377586364746,1.5014711618423462,2.9288711547851562,2.1180419921875
1738565142.8626919,-0.26104167103767395,0.43343907594680786,0.04474712908267975,1.1144211292266846,3.2549421787261963,2.2496957778930664
1738565142.8812408,-0.192386656999588,0.43808263540267944,0.023163065314292908,0.8198102712631226,3.393294334411621,2.484813690185547
1738565142.902993,-0.17902925610542297,0.4225941300392151,-0.00608295202255249,0.6301892399787903,3.170809507369995,2.6972503662109375
1738565142.9211721,-0.3077023923397064,0.43823498487472534,-0.061353445053100586,0.6181698441505432,2.856959581375122,2.6566126346588135
1738565142.941154,-0.3681343197822571,0.38042449951171875,-0.03099125623703003,0.5774580836296082,2.3360633850097656,2.430948495864868
1738565142.963019,-0.3774039149284363,0.33839571475982666,0.10364770144224167,0.23789294064044952,1.9017404317855835,2.2089593410491943
1738565142.981159,-0.29787111282348633,0.28738248348236084,0.1363813877105713,-0.19529616832733154,1.8848628997802734,2.186429977416992
1738565143.000937,-0.37780505418777466,0.28470736742019653,0.1500568389892578,-0.6578577160835266,1.8870956897735596,2.0372815132141113
1738565143.021045,-0.5744372606277466,0.1749352216720581,0.013872206211090088,-0.6372867822647095,1.5400437116622925,1.4141615629196167
1738565143.041206,-0.5850300192832947,0.11559319496154785,-0.05111832171678543,-0.5033864974975586,1.2156715393066406,0.9210605621337891
1738565143.063793,-0.4457116723060608,0.11873418092727661,-0.011862985789775848,-0.5393816828727722,1.0405246019363403,0.8682098388671875
1738565143.081018,-0.3525504767894745,0.11092734336853027,-0.018281519412994385,-0.6028810143470764,0.9176076054573059,1.0419719219207764
1738565143.100956,-0.4573032557964325,0.07559800148010254,-0.050660595297813416,-0.6463707089424133,0.7044489979743958,0.9240375757217407
1738565143.121166,-0.5445461869239807,0.02233898639678955,-0.07043959200382233,-0.6695807576179504,0.514593780040741,0.5812583565711975
1738565143.140908,-0.4981594681739807,0.016569912433624268,-0.08150075376033783,-0.701070249080658,0.39011722803115845,0.34268301725387573
1738565143.1610022,-0.39976513385772705,0.016210556030273438,-0.10647749900817871,-0.7356133460998535,0.35187843441963196,0.2871900498867035
1738565143.1808128,-0.3470490276813507,0.024138569831848145,-0.1092521995306015,-0.853531002998352,0.49013999104499817,0.2525138258934021
1738565143.200974,-0.3870221972465515,0.03572934865951538,-0.21352583169937134,-0.8215839862823486,0.6017991304397583,0.043951284140348434
1738565143.220621,-0.4383353888988495,0.0033252835273742676,-0.37095510959625244,-0.4571102261543274,0.49032726883888245,-0.30723491311073303
