timestamp,acc_x,acc_y,acc_z,rot_x,rot_y,rot_z
1738565073.861172,0.06543917953968048,-0.036105453968048096,-0.05654798448085785,-0.36568382382392883,0.039707232266664505,-0.6731964945793152
1738565073.862073,0.04926304519176483,0.007776081562042236,-0.16165398061275482,-0.38768136501312256,0.24500204622745514,-0.6899453997612
1738565073.867482,0.12527267634868622,0.01247859001159668,-0.20601452887058258,-0.3531901240348816,0.42427361011505127,-0.5854530334472656
1738565073.887213,0.18056653439998627,0.05212962627410889,-0.25385409593582153,-0.21073216199874878,0.451801061630249,-0.4118458032608032
1738565073.907129,0.2026645839214325,0.07948076725006104,-0.29645925760269165,0.022049855440855026,0.40567588806152344,-0.2488165944814682
1738565073.9272761,0.2230558842420578,0.10982745885848999,-0.3032188415527344,0.2455109804868698,0.34917402267456055,-0.0821782648563385
1738565073.947334,0.26995646953582764,0.1398267149925232,-0.2590233087539673,0.3614262044429779,0.32607948780059814,0.17856046557426453
1738565073.969108,0.31615906953811646,0.15644025802612305,-0.20687328279018402,0.3918303847312927,0.284616082906723,0.5261545181274414
1738565073.987349,0.2972566485404968,0.19892913103103638,-0.20705008506774902,0.47197285294532776,0.27060335874557495,0.8643907308578491
1738565074.00717,0.25931787490844727,0.20989197492599487,-0.18572187423706055,0.5325828194618225,0.35037529468536377,1.1714941263198853
1738565074.027472,0.22043322026729584,0.23573154211044312,-0.1417752057313919,0.519423246383667,0.48252254724502563,1.4233789443969727
1738565074.0469809,0.1939231902360916,0.25628000497817993,-0.07448232173919678,0.41198888421058655,0.58918696641922,1.631220817565918
1738565074.068701,0.1678042709827423,0.30583542585372925,-0.06498443335294724,0.3784695267677307,0.5664715766906738,1.7971960306167603
1738565074.087084,0.1626492738723755,0.3434796929359436,-0.04565585404634476,0.3623141348361969,0.44726890325546265,1.958572506904602
1738565074.106895,0.17013879120349884,0.36800599098205566,-0.002921454608440399,0.2745688557624817,0.35562989115715027,2.215566873550415
1738565074.128011,0.15343882143497467,0.3916522264480591,0.012056656181812286,0.1894485205411911,0.2452308088541031,2.4729599952697754
1738565074.147345,0.11930724233388901,0.429237425327301,0.012729696929454803,0.1369132548570633,0.1541832834482193,2.6660540103912354
1738565074.168264,0.03929733484983444,0.4406312108039856,0.02736658602952957,0.0743437334895134,0.12397297471761703,2.6640193462371826
1738565074.186588,-0.013004139065742493,0.43828850984573364,0.0450974777340889,-0.03167947754263878,0.1402677744626999,2.5729403495788574
1738565074.207477,-0.012948840856552124,0.4298250079154968,0.09792102128267288,-0.2597070336341858,0.182841956615448,2.5965702533721924
1738565074.226908,-0.022125661373138428,0.4197346568107605,0.11454189568758011,-0.511761486530304,0.05497737228870392,2.674410104751587
1738565074.246486,-0.08946782350540161,0.42694318294525146,0.1284341812133789,-0.7801408171653748,-0.04929863661527634,2.6077358722686768
1738565074.266396,-0.14200639724731445,0.43190187215805054,0.16375817358493805,-1.130649447441101,0.08261812478303909,2.481069326400757
1738565074.2863588,-0.13808593153953552,0.4379013776779175,0.14391012489795685,-1.429905891418457,0.23206698894500732,2.4658541679382324
1738565074.30656,-0.12576520442962646,0.4547184705734253,0.10480749607086182,-1.6441981792449951,0.34355998039245605,2.5740628242492676
1738565074.326988,-0.2033066749572754,0.4479520916938782,0.05983668565750122,-1.731641173362732,0.2538844347000122,2.544555187225342
1738565074.346538,-0.2957373261451721,0.43515682220458984,0.05699104070663452,-1.743639349937439,0.007898164913058281,2.298173427581787
1738565074.367137,-0.2552844285964966,0.4331519603729248,0.09928709268569946,-1.855009913444519,-0.18648836016654968,2.2591476440429688
1738565074.386712,-0.19087612628936768,0.47242140769958496,0.1353534758090973,-2.0737130641937256,-0.2241412252187729,2.504918336868286
1738565074.407764,-0.24852627515792847,0.5004414319992065,0.11760351061820984,-2.2544851303100586,-0.28931888937950134,2.671809673309326
1738565074.426327,-0.3966003656387329,0.4709894061088562,0.045458704233169556,-2.2211220264434814,-0.6254666447639465,2.4914186000823975
1738565074.44626,-0.48200488090515137,0.4360898733139038,0.0299798846244812,-2.217703342437744,-0.7843116521835327,2.208413600921631
1738565074.466311,-0.4516768455505371,0.43907666206359863,0.10953080654144287,-2.4864368438720703,-0.656585156917572,2.0398097038269043
1738565074.486329,-0.47327786684036255,0.4317483901977539,0.10630875825881958,-2.7484130859375,-0.5870072245597839,1.8461631536483765
1738565074.506243,-0.48392629623413086,0.422746866941452,0.07155048847198486,-2.9475455284118652,-0.5132339596748352,1.6692783832550049
1738565074.5267138,-0.506969690322876,0.42400622367858887,0.07611703872680664,-3.1954803466796875,-0.49316245317459106,1.4267538785934448
1738565074.54627,-0.5555770397186279,0.4076705276966095,0.016394108533859253,-3.35514235496521,-0.5788925290107727,1.0742287635803223
1738565074.5673041,-0.5623716711997986,0.42225196957588196,-0.009098649024963379,-3.5221667289733887,-0.6066127419471741,0.7281984686851501
1738565074.586098,-0.567732036113739,0.4145609736442566,-0.09815242886543274,-3.5399763584136963,-0.6805773377418518,0.401181161403656
1738565074.606073,-0.6598941683769226,0.37436527013778687,-0.18334844708442688,-3.4516193866729736,-0.777227520942688,-0.1307845562696457
1738565074.626481,-0.6610435843467712,0.39210832118988037,-0.11837121844291687,-3.62190580368042,-0.4360177218914032,-0.6903948187828064
1738565074.646644,-0.6371477842330933,0.39249926805496216,-0.08213835954666138,-3.895364284515381,-0.11166530847549438,-1.3353033065795898
1738565074.66839,-0.7195749878883362,0.3876672387123108,-0.15919730067253113,-4.049106597900391,-0.13279938697814941,-2.2920329570770264
1738565074.686265,-0.7143126130104065,0.43981117010116577,-0.207960307598114,-4.23375129699707,-0.04597531259059906,-3.210904598236084
1738565074.706462,-0.595831036567688,0.5661762356758118,-0.16593629121780396,-4.562541484832764,0.5351042747497559,-3.7998032569885254
1738565074.728287,-0.4992605447769165,0.6476204991340637,-0.16513466835021973,-4.781076908111572,1.1844006776809692,-4.061521053314209
1738565074.746324,-0.40601569414138794,0.6932592988014221,-0.19331622123718262,-4.804159164428711,1.4378845691680908,-4.14846658706665
1738565074.766303,-0.39806538820266724,0.6954863667488098,-0.17420804500579834,-4.922661781311035,1.6933965682983398,-4.406830310821533
1738565074.786265,-0.44739794731140137,0.7027570605278015,-0.22782433032989502,-4.9288153648376465,2.0856435298919678,-4.863333225250244
1738565074.806353,-0.3691149353981018,0.7189064621925354,-0.30815988779067993,-4.719767093658447,2.4325203895568848,-4.980043411254883
1738565074.8302531,-0.22353589534759521,0.639407753944397,-0.41928553581237793,-4.256678104400635,2.5263359546661377,-4.683962345123291
1738565074.8460832,-0.175620436668396,0.5266484618186951,-0.5089150071144104,-3.6711409091949463,2.5021955966949463,-4.389828681945801
1738565074.8664331,-0.2504412829875946,0.42775553464889526,-0.5875996947288513,-2.9286506175994873,2.4786598682403564,-4.339076042175293
1738565074.88735,-0.3185955286026001,0.3422453701496124,-0.5982947945594788,-2.211942195892334,2.2578837871551514,-4.48259162902832
1738565074.906445,-0.3931466042995453,0.35153645277023315,-0.6021097898483276,-1.4874541759490967,1.6322097778320312,-4.642040252685547
1738565074.928108,-0.4113953411579132,0.36429286003112793,-0.7364815473556519,-0.5676857829093933,0.8732784986495972,-4.815952777862549
1738565074.946274,-0.4631179869174957,0.410646915435791,-0.7710171341896057,0.29731670022010803,0.7793126106262207,-5.025871753692627
1738565074.965699,-0.35770735144615173,0.4499914348125458,-0.6936736106872559,0.939025342464447,0.6378365755081177,-5.022347927093506
1738565074.98569,-0.2426081895828247,0.480411559343338,-0.590660810470581,1.3555805683135986,0.3740193545818329,-4.84714412689209
1738565075.005789,-0.08927321434020996,0.5053427815437317,-0.4639866352081299,1.4922245740890503,0.6406884789466858,-4.4148736000061035
1738565075.0257,0.19641709327697754,0.4866553544998169,-0.3463820219039917,1.3889678716659546,1.2040218114852905,-3.5037055015563965
1738565075.045567,0.261213481426239,0.45000460743904114,-0.2878829836845398,1.2270410060882568,1.7532812356948853,-2.5450644493103027
1738565075.065485,0.0470442920923233,0.38261792063713074,-0.3409388065338135,1.2797012329101562,2.0396203994750977,-2.0107102394104004
1738565075.085682,-0.047220900654792786,0.3728984296321869,-0.3063824772834778,1.28983473777771,2.1150102615356445,-1.5941290855407715
1738565075.1056008,-0.1828748732805252,0.3457129895687103,-0.34342700242996216,1.3626067638397217,2.3369126319885254,-1.401124358177185
1738565075.125743,-0.34950774908065796,0.31221574544906616,-0.36019933223724365,1.502677321434021,2.501866340637207,-1.480745553970337
1738565075.145533,-0.3420417904853821,0.3399428725242615,-0.3560999035835266,1.6927835941314697,2.507087230682373,-1.4569482803344727
1738565075.165905,-0.14632433652877808,0.35284775495529175,-0.270399808883667,1.6723291873931885,2.5580811500549316,-1.086061954498291
1738565075.185477,-0.09846478700637817,0.36335647106170654,-0.20691800117492676,1.5287445783615112,2.8109328746795654,-0.6639729738235474
1738565075.205357,-0.29169875383377075,0.3904825448989868,-0.2309979796409607,1.4956549406051636,3.019888162612915,-0.6087847948074341
1738565075.225321,-0.27714118361473083,0.3749825358390808,-0.227999746799469,1.5639429092407227,3.2684414386749268,-0.5298466086387634
1738565075.245352,-0.12330079078674316,0.3844796419143677,-0.18650490045547485,1.600273609161377,3.5670697689056396,-0.1617445945739746
1738565075.2653642,0.017390072345733643,0.3849480152130127,-0.12433326244354248,1.5595875978469849,3.730131149291992,0.4252246916294098
1738565075.285183,0.050889790058135986,0.38258105516433716,-0.10056179761886597,1.4738421440124512,3.6410598754882812,1.0497146844863892
1738565075.305575,-0.153886616230011,0.3867413401603699,-0.15832790732383728,1.5530577898025513,3.4277424812316895,1.2387135028839111
1738565075.328382,-0.3483840823173523,0.3496265411376953,-0.20255917310714722,1.7467217445373535,3.1825790405273438,1.0504999160766602
1738565075.3459558,-0.3484179973602295,0.3576580882072449,-0.16457891464233398,1.8138560056686401,3.099661111831665,0.9832348823547363
1738565075.365437,-0.21426212787628174,0.34678733348846436,-0.06545287370681763,1.617817759513855,3.192335605621338,1.1418533325195312
1738565075.3853579,-0.18342798948287964,0.3620642423629761,-0.012669026851654053,1.316420316696167,3.35265851020813,1.3630380630493164
1738565075.405919,-0.23410779237747192,0.35402315855026245,-0.04305911064147949,1.1389209032058716,3.294550895690918,1.4807976484298706
1738565075.429469,-0.23646366596221924,0.3401437997817993,0.002043008804321289,0.9813502430915833,2.9947471618652344,1.590657353401184
1738565075.4463181,-0.1787632703781128,0.345272958278656,0.0449100136756897,0.7609207630157471,2.652721643447876,1.798494577407837
1738565075.465623,-0.21396449208259583,0.3525846600532532,0.12039649486541748,0.4123634696006775,2.436063051223755,1.901741862297058
1738565075.485763,-0.2528175413608551,0.3306471109390259,0.15416932106018066,0.028406325727701187,2.387037754058838,1.90140962600708
1738565075.505357,-0.1200534999370575,0.3108175992965698,0.22111999988555908,-0.47909146547317505,2.4473679065704346,2.18359637260437
1738565075.527919,-0.0066699981689453125,0.31690192222595215,0.2287076711654663,-0.9648647904396057,2.1714513301849365,2.634514570236206
1738565075.5453281,-0.21824127435684204,0.33034074306488037,0.08910787105560303,-0.9888879060745239,1.588809609413147,2.597057819366455
1738565075.565357,-0.37638700008392334,0.28824013471603394,-0.10099494457244873,-0.6262961626052856,1.5031931400299072,2.2869491577148438
1738565075.5853338,-0.30448371171951294,0.2618945240974426,-0.09560847282409668,-0.4046115279197693,1.7963792085647583,2.284503936767578
1738565075.6051989,-0.188232421875,0.25124865770339966,-0.09051573276519775,-0.2993721663951874,1.8483885526657104,2.5312721729278564
1738565075.625318,-0.29202497005462646,0.25255024433135986,-0.14609920978546143,-0.16556011140346527,1.6159987449645996,2.549675941467285
1738565075.645481,-0.4493598937988281,0.22712838649749756,-0.11424863338470459,-0.11785067617893219,1.3235704898834229,2.184002637863159
1738565075.6651812,-0.4006117284297943,0.18019568920135498,-0.13714754581451416,-0.03999774530529976,1.26113760471344,1.9114238023757935
1738565075.685056,-0.23936940729618073,0.16954535245895386,-0.19053494930267334,0.05240880325436592,1.2508125305175781,1.9713727235794067
1738565075.7049809,-0.3858799934387207,0.15774005651474,-0.16963577270507812,0.01924872025847435,0.9759072661399841,1.661872148513794
