timestamp,acc_x,acc_y,acc_z,rot_x,rot_y,rot_z
1738565076.766029,0.1629391759634018,-0.025116443634033203,-0.16040652990341187,-0.47933974862098694,0.579127311706543,-0.5921496152877808
1738565076.767384,0.16370049118995667,0.0350765585899353,-0.2824922800064087,-0.3862759470939636,0.7690743803977966,-0.45381203293800354
1738565076.778944,0.16753795742988586,0.08091151714324951,-0.32868313789367676,-0.1273965984582901,0.7398416996002197,-0.3023838996887207
1738565076.798888,0.14732524752616882,0.10883307456970215,-0.35531115531921387,0.2423182874917984,0.5265836119651794,-0.22770735621452332
1738565076.818922,0.1713963896036148,0.16054540872573853,-0.30191463232040405,0.5397984385490417,0.32089388370513916,-0.15749457478523254
1738565076.838872,0.24162587523460388,0.2155093550682068,-0.22213876247406006,0.6885296702384949,0.271553099155426,0.02480328269302845
1738565076.858904,0.34483301639556885,0.23982661962509155,-0.1256658434867859,0.6462578773498535,0.36342936754226685,0.44611915946006775
1738565076.8790212,0.37352412939071655,0.2404193878173828,-0.10428398847579956,0.5586956739425659,0.4594600796699524,1.0314552783966064
1738565076.898942,0.29135891795158386,0.2932889461517334,-0.1268681287765503,0.6051083207130432,0.5275835394859314,1.4876960515975952
1738565076.919301,0.1719251573085785,0.3403363823890686,-0.12294024229049683,0.6832448244094849,0.5838932991027832,1.6392279863357544
1738565076.939186,0.11089301109313965,0.3995479345321655,-0.07235550880432129,0.6343390345573425,0.7307734489440918,1.6052274703979492
1738565076.962078,0.14155213534832,0.43102121353149414,0.030121684074401855,0.25160902738571167,1.0758907794952393,1.6460437774658203
1738565076.9789882,0.2562324106693268,0.4521680474281311,0.025277137756347656,-0.1732093095779419,1.2281508445739746,2.047271251678467
1738565076.998862,0.27516958117485046,0.5130580067634583,-0.050055742263793945,-0.41332998871803284,1.0733590126037598,2.6155080795288086
1738565077.018786,0.1317203789949417,0.5632436871528625,-0.20326566696166992,-0.20787566900253296,0.5849980115890503,2.860241174697876
1738565077.038935,0.06633871793746948,0.5778480768203735,-0.16013580560684204,0.06142130494117737,0.19717247784137726,2.812622308731079
1738565077.058999,0.20397484302520752,0.5696714520454407,0.02364528179168701,-0.24469727277755737,0.4068028926849365,3.132406234741211
1738565077.079021,0.21378064155578613,0.6101871132850647,0.041185081005096436,-0.7260300517082214,0.8536952137947083,3.6610779762268066
1738565077.098803,0.025913506746292114,0.6002548933029175,-0.06496691703796387,-0.9313865900039673,0.9155243039131165,3.842442274093628
1738565077.120182,-0.230819433927536,0.5281088352203369,-0.1423843502998352,-0.7056801319122314,0.31768497824668884,3.4065752029418945
1738565077.138778,-0.3202996850013733,0.4498140215873718,0.043769240379333496,-0.788559079170227,-0.24135378003120422,2.810812473297119
1738565077.158712,-0.28963834047317505,0.46890753507614136,0.22753022611141205,-1.4578161239624023,0.015249337069690228,2.4133033752441406
1738565077.1795769,-0.21817278861999512,0.505876898765564,0.21359889209270477,-2.2223877906799316,0.7871058583259583,2.201775074005127
1738565077.199116,-0.16243648529052734,0.4838431477546692,0.03347982466220856,-2.5505480766296387,1.0022364854812622,2.1639678478240967
1738565077.2197208,-0.23428726196289062,0.47992420196533203,-0.15571647882461548,-2.2801296710968018,0.37552782893180847,2.177717685699463
1738565077.238854,-0.30573320388793945,0.4803253412246704,-0.07679641246795654,-2.0482256412506104,-0.13324299454689026,2.0964081287384033
1738565077.25862,-0.30373847484588623,0.47909867763519287,0.08376991748809814,-2.219254493713379,-0.16874736547470093,2.101590156555176
1738565077.2799811,-0.3608230948448181,0.4661067724227905,0.21013954281806946,-2.5974607467651367,0.1493549346923828,2.0653140544891357
1738565077.29846,-0.44990605115890503,0.4929782748222351,0.23440665006637573,-3.024163246154785,0.27133795619010925,1.9496805667877197
1738565077.3193789,-0.7471989393234253,0.47298532724380493,0.11567467451095581,-3.2462544441223145,-0.21624034643173218,1.2193341255187988
1738565077.33842,-0.7598761320114136,0.4825263023376465,0.1050572395324707,-3.6722710132598877,-0.35346871614456177,0.38816580176353455
1738565077.358467,-0.5933433175086975,0.5019446611404419,0.0811988115310669,-4.478995323181152,0.26216191053390503,-0.06862243264913559
1738565077.378931,-0.4204791188240051,0.522244930267334,-0.12306082248687744,-4.97719144821167,0.9869670271873474,-0.09666487574577332
1738565077.398507,-0.49371081590652466,0.4995498061180115,-0.3434217572212219,-4.876336097717285,0.9416779279708862,-0.18705424666404724
1738565077.420336,-0.6298334002494812,0.46165788173675537,-0.45280319452285767,-4.327264308929443,0.35960614681243896,-0.5586428046226501
1738565077.438888,-0.5706285834312439,0.41197341680526733,-0.266340434551239,-4.164580821990967,0.10089455544948578,-0.7680952548980713
1738565077.4585938,-0.5813811421394348,0.43166065216064453,-0.16610199213027954,-4.551511287689209,0.4622654914855957,-0.9144039750099182
1738565077.480279,-0.7193907499313354,0.3875606060028076,-0.4302288293838501,-4.432880401611328,0.7317420244216919,-1.3212007284164429
1738565077.498403,-0.7818726897239685,0.37676453590393066,-0.5349044799804688,-3.957164764404297,0.8743005394935608,-1.8251256942749023
1738565077.519771,-0.6919065117835999,0.36025863885879517,-0.4228001832962036,-3.659113645553589,0.918867826461792,-2.1407630443573
1738565077.538474,-0.6216674447059631,0.3720305860042572,-0.2580556869506836,-3.731153964996338,1.000125527381897,-2.3987293243408203
1738565077.558454,-0.6269022822380066,0.42142215371131897,-0.22310316562652588,-3.8233652114868164,1.358022689819336,-2.8008766174316406
1738565077.580024,-0.6127018928527832,0.452217698097229,-0.2594525218009949,-3.8425686359405518,1.8156969547271729,-3.401563882827759
1738565077.598052,-0.46902573108673096,0.47821977734565735,-0.3772793412208557,-3.4213764667510986,1.8595483303070068,-3.803128242492676
1738565077.61848,-0.3636205196380615,0.4925951659679413,-0.3233669400215149,-2.985640048980713,1.7134695053100586,-3.899573802947998
1738565077.638716,-0.3855486214160919,0.5152863264083862,-0.27195435762405396,-2.603950023651123,1.4848898649215698,-4.067951202392578
1738565077.6585078,-0.43352723121643066,0.5750241279602051,-0.214219868183136,-2.4027769565582275,1.4617390632629395,-4.441086292266846
1738565077.68063,-0.3820364773273468,0.5923673510551453,-0.164451003074646,-2.3738112449645996,1.8765814304351807,-4.782957077026367
1738565077.697873,-0.3383459448814392,0.6408325433731079,-0.23868423700332642,-2.144209384918213,2.304445743560791,-4.921002388000488
1738565077.7199612,-0.2988698184490204,0.6119645833969116,-0.3195762634277344,-1.6148253679275513,2.3281705379486084,-5.014418601989746
1738565077.738023,-0.32797864079475403,0.5891214609146118,-0.31911957263946533,-1.1973018646240234,2.086693048477173,-5.19923734664917
1738565077.75807,-0.3061511218547821,0.6050004959106445,-0.339171826839447,-0.9445798993110657,1.9038571119308472,-5.353471279144287
1738565077.778014,-0.10180754959583282,0.6318858861923218,-0.3987206816673279,-0.6274970769882202,1.6394187211990356,-5.134822368621826
1738565077.79814,0.05750906467437744,0.6314157247543335,-0.4735807776451111,-0.22163791954517365,1.4048992395401,-4.511930465698242
1738565077.818078,0.02622014284133911,0.5883164405822754,-0.6208285689353943,0.4672297537326813,1.0884921550750732,-4.077921390533447
1738565077.838126,-0.05658307671546936,0.5815032720565796,-0.6526318788528442,1.1157220602035522,0.9058390259742737,-3.848416328430176
1738565077.858127,-0.02940554916858673,0.5655271410942078,-0.6151841878890991,1.566586971282959,1.0053662061691284,-3.6019532680511475
1738565077.8778958,0.017594464123249054,0.5879228115081787,-0.5242719054222107,1.8061195611953735,1.3963849544525146,-3.285090684890747
1738565077.898314,0.06410228461027145,0.5786566138267517,-0.4842396378517151,2.0443804264068604,1.5803086757659912,-2.83415150642395
1738565077.922299,0.09866836667060852,0.5359798669815063,-0.40183180570602417,2.2000160217285156,1.700223445892334,-2.3493645191192627
1738565077.937818,0.04831831157207489,0.5231033563613892,-0.30074429512023926,2.1228532791137695,1.920571208000183,-1.9210397005081177
1738565077.957876,-0.09688824415206909,0.4956808090209961,-0.301144540309906,2.1019880771636963,2.3284356594085693,-1.7142382860183716
1738565077.977762,-0.16102594137191772,0.5023407936096191,-0.29655659198760986,2.1833674907684326,2.6086504459381104,-1.6032121181488037
1738565077.9975262,-0.11186076700687408,0.47225815057754517,-0.24205553531646729,2.180816411972046,2.689940929412842,-1.3583431243896484
1738565078.01739,-0.1090032160282135,0.49226218461990356,-0.16890478134155273,1.9945095777511597,2.6728570461273193,-1.112668514251709
1738565078.037541,-0.0977151095867157,0.4942622184753418,-0.15053123235702515,1.6771007776260376,2.796748638153076,-0.7851200699806213
1738565078.057722,-0.17087233066558838,0.49116596579551697,-0.19433599710464478,1.4355432987213135,3.1314916610717773,-0.5352603793144226
1738565078.0779738,-0.19522932171821594,0.46847468614578247,-0.25311124324798584,1.3994868993759155,3.4325642585754395,-0.3446028232574463
1738565078.097806,-0.11915114521980286,0.4348163604736328,-0.2886485457420349,1.5969946384429932,3.463181734085083,0.0034994161687791348
1738565078.1199589,-0.10337251424789429,0.4682776927947998,-0.2980954647064209,1.957150936126709,3.217702865600586,0.4268183708190918
1738565078.137949,-0.1614711880683899,0.5107606649398804,-0.18189996480941772,2.063964605331421,3.096985340118408,0.7757834792137146
1738565078.157867,-0.21086126565933228,0.4892142415046692,-0.12637174129486084,2.0048861503601074,3.096121311187744,0.9875180125236511
1738565078.180809,-0.20966511964797974,0.4559546113014221,-0.11378979682922363,1.9477086067199707,2.994994640350342,1.1952131986618042
1738565078.197525,-0.2130412459373474,0.45832937955856323,-0.10017901659011841,1.9437742233276367,2.92400860786438,1.4180412292480469
1738565078.2183151,-0.18758350610733032,0.4480903744697571,-0.04013621807098389,1.828096866607666,2.960780143737793,1.6676017045974731
1738565078.237616,-0.1984158754348755,0.4429234266281128,-0.010644853115081787,1.5792399644851685,3.0596764087677,1.930599331855774
1738565078.2577791,-0.25400489568710327,0.43812817335128784,-0.03923439979553223,1.3883153200149536,3.098820924758911,2.102208137512207
1738565078.280057,-0.32721972465515137,0.4521394968032837,-0.05606834590435028,1.2810453176498413,3.0329291820526123,2.1362674236297607
1738565078.298588,-0.3211420774459839,0.4182812571525574,-0.02294290065765381,1.104512333869934,2.846411943435669,2.1000804901123047
1738565078.317914,-0.2805630564689636,0.39795392751693726,-0.01147317886352539,0.8964805006980896,2.7276744842529297,2.1283912658691406
1738565078.337803,-0.23866578936576843,0.36956530809402466,0.0023668408393859863,0.6302585601806641,2.749124050140381,2.282196521759033
1738565078.3579159,-0.2553260028362274,0.3415600061416626,0.02530801296234131,0.3189893364906311,3.0390751361846924,2.422790288925171
1738565078.37766,-0.17438462376594543,0.3086521029472351,0.13154947757720947,-0.27402472496032715,3.6111631393432617,2.6319360733032227
1738565078.3974261,-0.046380579471588135,0.33387529850006104,0.1577742099761963,-1.056620478630066,4.299198150634766,3.0897016525268555
1738565078.417362,-0.22742891311645508,0.4197448492050171,-0.12595117092132568,-1.3017460107803345,3.9535622596740723,3.3826851844787598
1738565078.437378,-0.4585658609867096,0.3428575396537781,-0.4728296995162964,-0.27505508065223694,2.367090940475464,2.971893310546875
1738565078.4576259,-0.4830901622772217,0.3284834027290344,-0.28947019577026367,0.42376959323883057,1.1755887269973755,2.5347204208374023
1738565078.477525,-0.4658559560775757,0.29967421293258667,-0.07962918281555176,0.34952107071876526,0.9636597633361816,2.299520254135132
1738565078.497643,-0.4985549747943878,0.22224706411361694,-0.0006935596466064453,-0.023218806833028793,1.2003810405731201,1.9688351154327393
1738565078.5172958,-0.45702293515205383,0.16644442081451416,-0.057407133281230927,-0.2822178602218628,1.2504225969314575,1.7986453771591187
1738565078.537991,-0.4554218649864197,0.13362830877304077,-0.11865758895874023,-0.2598915696144104,1.0635288953781128,1.6350839138031006
1738565078.557571,-0.4968894422054291,0.09280341863632202,-0.11872434616088867,-0.18364372849464417,0.6953853368759155,1.3109076023101807
1738565078.5818439,-0.4971950650215149,0.06108337640762329,-0.04922211542725563,-0.3475935161113739,0.42044955492019653,0.898093581199646
1738565078.5973659,-0.4428485929965973,0.05569803714752197,-0.0024198293685913086,-0.7992625832557678,0.5899691581726074,0.6639150381088257
1738565078.617321,-0.34929656982421875,0.037087321281433105,-0.11064982414245605,-1.0622477531433105,0.9241176843643188,0.5665197968482971
1738565078.637876,-0.23795193433761597,0.027542293071746826,-0.16776049137115479,-1.1404188871383667,1.0728613138198853,0.6841957569122314
1738565078.6572618,-0.26780131459236145,0.016935527324676514,-0.256902277469635,-1.0128849744796753,0.8224591612815857,0.7402310967445374
1738565078.680676,-0.3553757667541504,-0.03378856182098389,-0.2984522581100464,-0.7349610924720764,0.621228039264679,0.5485830903053284
