timestamp,acc_x,acc_y,acc_z,rot_x,rot_y,rot_z
1738564371.119707,0.0004229247570037842,-0.011190831661224365,0.09078681468963623,-0.08911725133657455,0.04177926853299141,-0.03904063254594803
1738564371.120307,0.005906462669372559,-0.029398273676633835,0.03446298837661743,-0.292677640914917,-0.01059225294739008,-0.0725257396697998
1738564371.12133,-0.008127421140670776,0.008639320731163025,-0.03747981786727905,-0.2550989091396332,0.07017429918050766,-0.12094824016094208
1738564371.141504,0.011140495538711548,-0.0017426535487174988,-0.046064555644989014,-0.16257107257843018,0.10690030455589294,-0.1202118769288063
1738564371.160994,0.008588314056396484,-0.003569837659597397,-0.04920905828475952,-0.0449666753411293,0.08723285794258118,-0.12620559334754944
1738564371.181203,0.01997208595275879,-0.003342907875776291,-0.02043783664703369,0.000778568908572197,0.018835555762052536,-0.11233998835086823
1738564371.203641,0.012072741985321045,0.005284823477268219,-0.013469576835632324,-0.0065359678119421005,0.009545307606458664,-0.09190990030765533
1738564371.2209802,0.018087178468704224,0.007476545870304108,-0.01248180866241455,-0.014094578102231026,0.024187950417399406,-0.09138491749763489
1738564371.241013,0.03445509076118469,0.008116349577903748,-0.01430433988571167,-0.03567521274089813,0.032169125974178314,-0.05683473125100136
1738564371.261599,0.004154682159423828,0.003847874701023102,-0.05512207746505737,0.050081875175237656,0.028087442740797997,-0.05133792757987976
1738564371.281254,-0.003674834966659546,-0.012472182512283325,-0.04807329177856445,0.11184962093830109,-0.029408559203147888,-0.0688353180885315
1738564371.304196,-0.00582277774810791,-0.010168306529521942,-0.0244448184967041,0.07774420827627182,-0.07410318404436111,-0.09178537130355835
1738564371.321521,-0.010196506977081299,0.0030150748789310455,-0.061322689056396484,-0.009007157757878304,-0.14194965362548828,-0.09424537420272827
1738564371.341188,-0.03766191005706787,-0.003393065184354782,-0.17482024431228638,0.00845885369926691,-0.276111900806427,-0.11126073449850082
1738564371.3613172,-0.0649852454662323,-0.026796653866767883,-0.31105542182922363,0.16081741452217102,-0.4020732045173645,-0.13219302892684937
1738564371.381479,-0.09938392043113708,-0.04632394015789032,-0.42529433965682983,0.3910082280635834,-0.42109695076942444,-0.2128390520811081
1738564371.40127,-0.1441097855567932,-0.04295119643211365,-0.5504247546195984,0.6946543455123901,-0.4296610951423645,-0.3563087284564972
1738564371.42132,-0.1650124490261078,-0.011838577687740326,-0.6735859513282776,1.1167428493499756,-0.5059599280357361,-0.4731665253639221
1738564371.441073,-0.185741126537323,-0.0020513758063316345,-0.8171607851982117,1.7226917743682861,-0.6869152188301086,-0.5847935080528259
1738564371.461701,-0.19778212904930115,0.008925661444664001,-0.883823573589325,2.4753801822662354,-0.6135597229003906,-0.7664528489112854
1738564371.481003,-0.17454129457473755,0.06919893622398376,-0.772903561592102,2.959040403366089,-0.26852139830589294,-0.9272129535675049
1738564371.5021548,-0.16461050510406494,0.14585670828819275,-0.6154489517211914,3.082606315612793,0.2270488142967224,-1.0767381191253662
1738564371.521234,-0.17784708738327026,0.20526960492134094,-0.5213418006896973,3.0517311096191406,0.8604595065116882,-1.2747304439544678
1738564371.540934,-0.17181894183158875,0.22716468572616577,-0.4533107876777649,3.0892152786254883,1.5819200277328491,-1.4588922262191772
1738564371.560763,-0.16772937774658203,0.29562753438949585,-0.39118534326553345,3.200721263885498,1.9960269927978516,-1.5861806869506836
1738564371.581121,-0.10617595911026001,0.3495051860809326,-0.363344669342041,3.3839125633239746,1.880454182624817,-1.4921547174453735
1738564371.602001,-0.02834707498550415,0.3927479386329651,-0.3763638138771057,3.557007074356079,1.340029001235962,-1.196760892868042
1738564371.6207309,0.040331654250621796,0.35404902696609497,-0.44101089239120483,3.872133255004883,0.7874823212623596,-0.7876176238059998
1738564371.6404262,0.013865739107131958,0.39444881677627563,-0.42569947242736816,4.121779441833496,0.668214738368988,-0.4070465862751007
1738564371.660801,-0.05328182131052017,0.4909363389015198,-0.3282337188720703,4.116519451141357,0.8303495049476624,-0.13943210244178772
1738564371.680812,-0.1476525515317917,0.5148314237594604,-0.30898886919021606,4.213631629943848,1.0675222873687744,-0.1400129348039627
1738564371.700749,-0.20262977480888367,0.5999057292938232,-0.18740606307983398,4.196475505828857,1.263132929801941,-0.2977132201194763
1738564371.721978,-0.18644437193870544,0.6289925575256348,-0.08584576845169067,3.9029247760772705,1.3053560256958008,-0.3767675757408142
1738564371.7408519,-0.2209336906671524,0.6244182586669922,-0.18626272678375244,3.974111557006836,1.2024948596954346,-0.5787803530693054
1738564371.761437,-0.20691227912902832,0.6626943945884705,-0.14326894283294678,4.219820499420166,1.4860962629318237,-0.8130967020988464
1738564371.780729,-0.13307058811187744,0.7170183658599854,0.02558004856109619,4.168574333190918,2.0576183795928955,-0.8477301001548767
1738564371.800715,-0.04976987838745117,0.7115679979324341,0.15679258108139038,3.7328178882598877,2.421100616455078,-0.6428379416465759
1738564371.821762,-0.03390425443649292,0.6194438338279724,0.08969640731811523,3.572542905807495,2.5719640254974365,-0.4278813600540161
1738564371.841172,-0.04590229690074921,0.5784719586372375,0.05231809616088867,3.611884832382202,2.537311315536499,-0.29001784324645996
1738564371.861023,-0.006001114845275879,0.4920079708099365,0.08080349117517471,3.519117593765259,2.4459056854248047,-0.03436128795146942
1738564371.880944,0.016168609261512756,0.42910218238830566,0.016747355461120605,3.6673853397369385,2.1616621017456055,0.23342928290367126
1738564371.900636,0.02516072988510132,0.43630051612854004,-0.0010020732879638672,3.854215621948242,1.702449083328247,0.5416368842124939
1738564371.922007,-0.01253347098827362,0.4580753445625305,0.019594788551330566,3.9948556423187256,1.328664779663086,0.78578782081604
1738564371.940604,-0.03732115030288696,0.4693061113357544,0.21874162554740906,3.7635092735290527,1.4675079584121704,0.9943251013755798
1738564371.961807,-0.15287117660045624,0.4427565932273865,0.506838321685791,3.0282654762268066,1.853142261505127,0.9739453792572021
1738564371.9804258,-0.2949450612068176,0.3157625198364258,0.7629948854446411,2.013763427734375,1.9048045873641968,0.5308288335800171
1738564372.000484,-0.38568106293678284,0.28558284044265747,0.8026034832000732,1.1992497444152832,1.6951375007629395,-0.138248473405838
1738564372.021584,-0.4185827374458313,0.3832334280014038,0.7482876181602478,0.7866978645324707,1.5032634735107422,-0.6434211730957031
1738564372.040409,-0.37839317321777344,0.45433032512664795,0.8295039534568787,0.3649289608001709,1.3182803392410278,-0.8730849027633667
1738564372.061283,-0.28577297925949097,0.46102702617645264,0.9367734789848328,-0.3006500005722046,1.003551721572876,-0.8171257376670837
1738564372.080697,-0.16252829134464264,0.41957420110702515,0.8605959415435791,-0.895997166633606,0.25628530979156494,-0.48242706060409546
1738564372.1005712,-0.11922312527894974,0.37633830308914185,0.637917697429657,-1.14255952835083,-0.892309844493866,-0.08503440767526627
1738564372.1204162,-0.10901559144258499,0.33963966369628906,0.5130844712257385,-1.2869446277618408,-1.7687819004058838,0.19142229855060577
1738564372.140209,-0.09653246402740479,0.3307517170906067,0.4915374517440796,-1.6273677349090576,-1.9663397073745728,0.31122341752052307
1738564372.161837,-0.061885759234428406,0.3455585241317749,0.4752540588378906,-2.1185121536254883,-1.599955677986145,0.353465735912323
1738564372.180231,-0.03408818319439888,0.38198208808898926,0.45811599493026733,-2.7022457122802734,-0.920053243637085,0.3701081871986389
1738564372.2001991,-0.0669160783290863,0.4144265651702881,0.35095369815826416,-3.12501859664917,-0.49417051672935486,0.29358577728271484
1738564372.220541,-0.11318787932395935,0.3878026604652405,0.2010485827922821,-3.110244035720825,-0.5244522094726562,0.07952839136123657
1738564372.240237,-0.11212590336799622,0.36740750074386597,0.17020362615585327,-2.9711313247680664,-0.7345448136329651,-0.15286625921726227
1738564372.2613358,-0.0802929699420929,0.3853025436401367,0.2667222023010254,-3.1805288791656494,-0.6909300684928894,-0.32307466864585876
1738564372.280078,-0.06159511208534241,0.4126649498939514,0.29240405559539795,-3.64762282371521,-0.4582586884498596,-0.5028068423271179
1738564372.3000941,-0.09001538157463074,0.48354750871658325,0.14316487312316895,-3.823594570159912,-0.44197991490364075,-0.6509707570075989
1738564372.321385,-0.10193589329719543,0.4825696349143982,0.00027501583099365234,-3.4813575744628906,-0.6853284239768982,-0.7662031054496765
1738564372.340407,-0.08300037682056427,0.47987914085388184,0.14030063152313232,-3.6220715045928955,-0.7760348320007324,-0.8379809856414795
1738564372.361862,-0.08222728967666626,0.4808017611503601,0.26797062158584595,-4.452090263366699,-0.15804563462734222,-0.9883745908737183
1738564372.380013,-0.1472111940383911,0.5032422542572021,0.04370415210723877,-5.005653381347656,0.07119496911764145,-1.3094326257705688
1738564372.400056,-0.11193911731243134,0.41611814498901367,-0.41904306411743164,-4.1546783447265625,-1.618360161781311,-1.5866976976394653
1738564372.421982,0.004906773567199707,0.34550827741622925,-0.4267962574958801,-3.299586057662964,-3.872418165206909,-1.4390311241149902
1738564372.439996,-0.023256033658981323,0.3247019648551941,-0.27370285987854004,-3.120938777923584,-4.569239139556885,-1.1736774444580078
1738564372.461417,-0.10255389660596848,0.3907619118690491,-0.14861160516738892,-3.568769693374634,-3.371680498123169,-1.066284418106079
1738564372.479908,-0.11327661573886871,0.4524208903312683,-0.17390424013137817,-4.061697483062744,-1.3686048984527588,-0.9543147683143616
1738564372.50015,-0.03439920395612717,0.41350430250167847,-0.30070120096206665,-3.80700945854187,-0.33537930250167847,-0.7656112909317017
1738564372.521922,-0.08221326768398285,0.3644028306007385,-0.3591780662536621,-3.0464468002319336,-0.4941170811653137,-0.6284474730491638
1738564372.539857,-0.0869574323296547,0.3274308443069458,-0.21258759498596191,-2.560309410095215,-1.0601314306259155,-0.6027770042419434
1738564372.56008,0.015823105350136757,0.32708579301834106,0.013887166976928711,-2.589128255844116,-1.365126132965088,-0.32444608211517334
1738564372.580147,0.050685398280620575,0.3981553316116333,0.061551809310913086,-2.8169686794281006,-1.5503469705581665,0.1977788358926773
1738564372.599772,-0.0819750428199768,0.35039645433425903,-0.08647423982620239,-2.937171697616577,-1.7116169929504395,0.6104031801223755
1738564372.622445,-0.1738225221633911,0.22823366522789001,-0.24374723434448242,-2.9654905796051025,-1.784183382987976,0.6514750123023987
1738564372.639629,-0.04956836998462677,0.06739667057991028,-0.2889672517776489,-3.185455560684204,-1.884138584136963,0.8663575649261475
1738564372.661587,-0.04389575123786926,0.030003339052200317,-0.4050968885421753,-3.2670373916625977,-1.8234695196151733,1.1039360761642456
1738564372.6796842,-0.15462929010391235,0.12167495489120483,-0.5100069046020508,-3.175555944442749,-1.3771697282791138,1.2296634912490845
1738564372.69972,-0.32019785046577454,0.19114060699939728,-0.6385448575019836,-2.99491810798645,-1.014495849609375,0.9391753077507019
1738564372.721534,-0.21130718290805817,0.09445151686668396,-0.7865176200866699,-2.3070504665374756,-0.7649626135826111,0.6530095338821411
1738564372.739644,-0.05436810851097107,0.02252567559480667,-0.7975847721099854,-1.3031392097473145,-0.7594417929649353,0.7109118103981018
1738564372.759625,-0.0018159449100494385,-0.059252724051475525,-0.6119489669799805,-0.5710629820823669,-0.7533537149429321,0.8878646492958069
1738564372.779583,-0.13590121269226074,-0.04654451459646225,-0.37434136867523193,-0.5760930180549622,-0.41819050908088684,0.6863346099853516
1738564372.7998219,-0.22921738028526306,-0.0693342313170433,-0.30750757455825806,-0.7416862845420837,0.12952138483524323,0.08955980837345123
1738564372.822375,-0.19289526343345642,-0.07006309926509857,-0.3015493154525757,-0.7274832129478455,0.38576602935791016,-0.46555018424987793
1738564372.839787,-0.10850590467453003,-0.005554899573326111,-0.300819456577301,-0.6398823857307434,0.2017425298690796,-0.714026927947998
1738564372.859459,0.005954116582870483,-0.000215848907828331,-0.31182217597961426,-0.5192000865936279,-0.01947088912129402,-0.7064130902290344
1738564372.879562,0.06965973973274231,0.017398586496710777,-0.3191426992416382,-0.38783571124076843,0.06474226713180542,-0.6045326590538025
1738564372.900075,0.12933993339538574,0.02339351363480091,-0.35402458906173706,-0.05267072468996048,0.46839624643325806,-0.4700644612312317
1738564372.921958,0.18977949023246765,0.040977418422698975,-0.2666245102882385,0.32881960272789,0.7673957943916321,-0.20977908372879028
1738564372.939348,0.18965227901935577,0.07349210977554321,-0.08711409568786621,0.40205642580986023,0.6513552665710449,0.15596573054790497
1738564372.959275,0.09006963670253754,0.05774920433759689,-0.02337437868118286,0.3030689060688019,0.28492504358291626,0.384476900100708
