timestamp,acc_x,acc_y,acc_z,rot_x,rot_y,rot_z
1738573501.142908,-0.0054611265659332275,0.01821589469909668,0.1393975019454956,-0.7025476098060608,-0.47706612944602966,-0.13985319435596466
1738573501.143766,-0.013667292892932892,0.022563159465789795,0.07486677169799805,-0.7081179022789001,-0.36598366498947144,-0.12521740794181824
1738573501.162259,-0.011303327977657318,0.015748918056488037,0.04529297351837158,-0.5202057361602783,-0.230648010969162,-0.09481952339410782
1738573501.182115,-0.01961366832256317,0.01312863826751709,0.04955637454986572,-0.3196137845516205,-0.3254818022251129,-0.13197241723537445
1738573501.202106,-0.025709576904773712,0.03649735450744629,0.10763609409332275,-0.28011876344680786,-0.48628556728363037,-0.13613472878932953
1738573501.222455,-0.00617353618144989,0.047849059104919434,0.14096248149871826,-0.30137285590171814,-0.5508615374565125,-0.034752257168293
1738573501.242408,-0.04223483055830002,0.07398217916488647,0.12101584672927856,-0.2840863764286041,-0.6145627498626709,-0.004526608157902956
1738573501.262467,-0.04020235687494278,0.05793800950050354,0.1299753189086914,-0.20064112544059753,-0.6272610425949097,0.016479013487696648
1738573501.282059,-0.029597297310829163,0.06693980097770691,0.16887933015823364,-0.2338380515575409,-0.767238974571228,0.009569190442562103
1738573501.3024402,-0.05868242681026459,0.0983072817325592,0.16685891151428223,-0.3499568700790405,-0.8633469343185425,-0.03656252846121788
1738573501.322278,-0.04434078186750412,0.10321903228759766,0.15571832656860352,-0.3440203368663788,-0.7144409418106079,0.03535587713122368
1738573501.342401,-0.03867107629776001,0.12912333011627197,0.20735770463943481,-0.4964821934700012,-0.6880728006362915,0.12392053008079529
1738573501.3644562,-0.00922459363937378,0.11478358507156372,0.28364336490631104,-0.691814124584198,-0.7240751385688782,0.19588996469974518
1738573501.38239,-0.08819928020238876,0.14792358875274658,0.23098397254943848,-0.7622695565223694,-0.8527514338493347,0.0825481116771698
1738573501.404134,-0.12062911689281464,0.16299104690551758,0.20961064100265503,-0.9175614714622498,-0.8915198445320129,-0.0766659528017044
1738573501.422091,-0.07835526764392853,0.17929349839687347,0.19722163677215576,-1.160558819770813,-0.9474115371704102,-0.10943960398435593
1738573501.4424129,-0.014562949538230896,0.1912505179643631,0.2216586470603943,-1.2687627077102661,-0.9616098403930664,0.01199541799724102
1738573501.463992,-0.014549240469932556,0.21599408984184265,0.27553391456604004,-1.3586382865905762,-0.9669198989868164,0.1727604866027832
1738573501.4821591,-0.09610768407583237,0.2486260086297989,0.24849319458007812,-1.6523065567016602,-1.1271846294403076,0.21151135861873627
1738573501.503725,-0.12678784132003784,0.24436213076114655,0.22044283151626587,-2.276498556137085,-1.2313001155853271,0.06849823147058487
1738573501.522149,-0.0875130295753479,0.25880512595176697,0.15551841259002686,-2.894551992416382,-1.1371030807495117,-0.008054512552917004
1738573501.542138,-0.0452481210231781,0.27516597509384155,0.11707872152328491,-3.24821400642395,-0.934662938117981,0.10487213730812073
1738573501.563363,-0.21832334995269775,0.2791547179222107,-0.03940391540527344,-3.4394209384918213,-0.9540761709213257,-0.08849414438009262
1738573501.581845,-0.33690157532691956,0.2765798568725586,-0.28966033458709717,-3.4380924701690674,-1.4459187984466553,-0.701596200466156
1738573501.603903,-0.16914287209510803,0.23071765899658203,-0.5939233899116516,-2.9887912273406982,-2.2022294998168945,-1.0739586353302002
1738573501.6219,0.040627896785736084,0.22948569059371948,-0.7409644722938538,-2.637401580810547,-2.0008411407470703,-0.9753767848014832
1738573501.641947,0.2032015323638916,0.14204394817352295,-0.8094723224639893,-2.7786171436309814,-0.9832594394683838,-0.46751368045806885
1738573501.6639152,0.17420560121536255,0.03551045060157776,-1.1135380268096924,-2.47094464302063,0.14299459755420685,-0.14676514267921448
1738573501.6827512,0.09697496891021729,-0.10818243026733398,-1.4704214334487915,-1.356855034828186,0.4214666783809662,-0.07921770215034485
1738573501.704736,0.08962556719779968,-0.16566863656044006,-1.4827954769134521,0.2927461266517639,0.5694416165351868,-0.057326119393110275
1738573501.722703,0.11573797464370728,-0.21477079391479492,-1.1799070835113525,0.9898622632026672,0.7508594989776611,-0.01474628783762455
1738573501.741709,0.10860875248908997,-0.23728913068771362,-0.9825491905212402,1.0817492008209229,1.1463439464569092,-0.00883707869797945
1738573501.763538,0.05554759502410889,-0.22369426488876343,-1.0151675939559937,1.2846553325653076,1.2531386613845825,-0.12208420783281326
1738573501.782642,0.013638079166412354,-0.20588433742523193,-1.1645517349243164,1.8259108066558838,1.2001994848251343,-0.3330555856227875
1738573501.805307,0.020732060074806213,-0.1177380383014679,-1.153214693069458,2.3542943000793457,1.4587042331695557,-0.3703216016292572
1738573501.822537,0.038512811064720154,-0.002517595887184143,-1.0177619457244873,2.679202079772949,1.8706356287002563,-0.19143298268318176
1738573501.842558,0.0035197436809539795,0.12849213182926178,-0.976333498954773,3.147859811782837,1.964535117149353,0.07557421922683716
1738573501.863982,-0.12754590809345245,0.2614775598049164,-1.0141690969467163,3.9086737632751465,1.580127239227295,0.07621457427740097
1738573501.881639,-0.20814362168312073,0.38178324699401855,-0.93465656042099,4.5169677734375,1.3616969585418701,-0.03189533203840256
1738573501.901377,-0.21839120984077454,0.4884527027606964,-0.7091101408004761,4.616628170013428,1.5554356575012207,-0.09575700014829636
1738573501.921898,-0.2407759726047516,0.5843344330787659,-0.5955278873443604,4.6733551025390625,1.8165463209152222,-0.021303780376911163
1738573501.941766,-0.3538731336593628,0.6976135969161987,-0.6171556115150452,5.061809539794922,1.782202959060669,-0.0391499288380146
1738573501.96164,-0.3650195002555847,0.7986518144607544,-0.5030382871627808,5.533576965332031,1.5272423028945923,-0.10241318494081497
1738573501.981759,-0.38060659170150757,0.8834406137466431,-0.3131031394004822,5.76357364654541,1.4498825073242188,-0.15202707052230835
1738573502.0014539,-0.40100306272506714,0.9189280271530151,-0.13646739721298218,5.505418300628662,1.5466194152832031,-0.2192002534866333
1738573502.020948,-0.3991566300392151,0.915285050868988,-0.055119097232818604,5.029236316680908,1.7640937566757202,-0.3432309329509735
1738573502.0411801,-0.3571943938732147,0.8903613090515137,-0.030513286590576172,4.702232837677002,2.034905195236206,-0.3872098922729492
1738573502.0609179,-0.3218057155609131,0.9114284515380859,0.014503240585327148,4.436617374420166,2.060009479522705,-0.31869378685951233
1738573502.080961,-0.36852750182151794,0.902996301651001,-0.07075554132461548,4.384531497955322,1.9867533445358276,-0.29464206099510193
1738573502.101388,-0.28527510166168213,0.8751339316368103,-0.04776826500892639,4.377064228057861,1.8274099826812744,-0.22538423538208008
1738573502.121222,-0.1857803910970688,0.8562912344932556,0.047597020864486694,4.1502485275268555,1.825303077697754,0.05791502818465233
1738573502.140842,-0.17194503545761108,0.8222067952156067,0.023776233196258545,3.87333083152771,1.7987698316574097,0.3293069303035736
1738573502.161121,-0.17182452976703644,0.7568090558052063,-0.023570820689201355,3.7631514072418213,1.8025851249694824,0.4341316223144531
1738573502.181233,-0.19191476702690125,0.7313392162322998,-0.06218147277832031,3.7256577014923096,1.8166499137878418,0.42262783646583557
1738573502.201282,-0.14574339985847473,0.7095499038696289,-0.05544698238372803,3.810239791870117,2.0734989643096924,0.4355848431587219
1738573502.2207022,-0.06566813588142395,0.7191490530967712,0.026250362396240234,3.7316648960113525,2.3973805904388428,0.6046189069747925
1738573502.240844,0.0020447969436645508,0.6869555115699768,0.259305477142334,3.286459445953369,2.5193192958831787,0.9910575747489929
1738573502.260744,0.015896320343017578,0.5446829795837402,0.4825015068054199,2.342625856399536,1.9264956712722778,1.1919931173324585
1738573502.2807841,-0.12807917594909668,0.4556916356086731,0.3868449926376343,1.9681543111801147,1.4259382486343384,0.9162277579307556
1738573502.300747,-0.24593926966190338,0.43705153465270996,0.44891121983528137,1.8197263479232788,1.3203001022338867,0.4380163252353668
1738573502.3207111,-0.27543383836746216,0.4090227484703064,0.7654935121536255,1.087614893913269,1.4189046621322632,-0.11863500624895096
1738573502.340682,-0.2045513391494751,0.39867663383483887,0.9510817527770996,0.15670640766620636,1.4181156158447266,-0.3408505916595459
1738573502.363317,-0.13272985816001892,0.3929963707923889,0.9654566049575806,-0.6364877223968506,1.0086708068847656,-0.1689850389957428
1738573502.3809252,-0.11437159776687622,0.3453792929649353,0.839542031288147,-1.0655124187469482,0.20068396627902985,0.14227883517742157
1738573502.401089,-0.13411666452884674,0.29720044136047363,0.7247462272644043,-1.342548131942749,-0.6075192093849182,0.4131535589694977
1738573502.4209862,-0.1667419970035553,0.26641392707824707,0.585693359375,-1.6557430028915405,-1.302716851234436,0.5278030037879944
1738573502.440754,-0.19254086911678314,0.21438270807266235,0.42879757285118103,-1.9041774272918701,-1.4897947311401367,0.4811980724334717
1738573502.460761,-0.17676977813243866,0.22375988960266113,0.3366004228591919,-2.1177139282226562,-1.2856898307800293,0.32024359703063965
1738573502.480655,-0.14101330935955048,0.25992506742477417,0.370089054107666,-2.462106466293335,-0.9215054512023926,0.167693093419075
1738573502.500673,-0.18203718960285187,0.31126004457473755,0.3590216636657715,-2.7638607025146484,-0.576235830783844,-0.08125370740890503
1738573502.520633,-0.22139891982078552,0.34311187267303467,0.33928442001342773,-2.917160749435425,-0.29839253425598145,-0.4521116316318512
1738573502.5405369,-0.16816522181034088,0.3985905647277832,0.40821170806884766,-3.20418643951416,-0.1949196457862854,-0.6716597080230713
1738573502.56066,-0.09545089304447174,0.4562714099884033,0.4434594511985779,-3.613739490509033,-0.3129325211048126,-0.6712692975997925
1738573502.580498,-0.05712178349494934,0.5123841762542725,0.32712292671203613,-3.898010015487671,-0.5239356756210327,-0.47278890013694763
1738573502.60059,-0.07559545338153839,0.5138293504714966,0.1104336678981781,-3.656885862350464,-0.8344983458518982,-0.27878624200820923
1738573502.6207252,-0.10209134221076965,0.4937785863876343,0.05965471267700195,-3.3921663761138916,-1.4299501180648804,-0.17506542801856995
1738573502.6407108,-0.080508291721344,0.5232363343238831,0.059424757957458496,-3.3123106956481934,-2.048696756362915,0.022462978959083557
1738573502.662421,-0.03445690870285034,0.5200966000556946,0.010696887969970703,-3.201601505279541,-2.076076030731201,0.3267822861671448
1738573502.680275,-0.08944186568260193,0.520794689655304,-0.015332341194152832,-3.3629226684570312,-1.7439182996749878,0.43441617488861084
1738573502.7004662,-0.158258318901062,0.45512109994888306,-0.10632365942001343,-3.4712202548980713,-1.0717296600341797,0.275964617729187
1738573502.720405,-0.18002617359161377,0.44128501415252686,0.00867682695388794,-3.820819139480591,-0.24643346667289734,-0.06783799082040787
1738573502.740303,-0.14136725664138794,0.46368324756622314,0.01899772882461548,-3.983366012573242,-0.14044888317584991,-0.21955566108226776
1738573502.762299,-0.28258639574050903,0.4632546305656433,-0.33111757040023804,-3.5827579498291016,-1.2665070295333862,-0.5376448631286621
1738573502.780231,-0.13898509740829468,0.39602136611938477,-0.5834830403327942,-2.733916759490967,-2.420757532119751,-0.5044749975204468
1738573502.800222,0.05007012188434601,0.37599945068359375,-0.44417840242385864,-2.2943406105041504,-2.5374953746795654,0.11974340677261353
1738573502.820045,-0.0024642348289489746,0.344505250453949,-0.2843235731124878,-2.546055555343628,-2.1835927963256836,0.5544443726539612
1738573502.840087,-0.2772780656814575,0.2861247658729553,-0.49046874046325684,-2.9313061237335205,-1.5032994747161865,0.12452331930398941
1738573502.860076,-0.1987771987915039,0.20746752619743347,-0.5260108709335327,-2.9805126190185547,-0.2749544382095337,-0.3190673291683197
1738573502.880363,-0.07264651358127594,0.19686982035636902,-0.394758939743042,-3.1375956535339355,0.1730213463306427,-0.38617661595344543
1738573502.900289,-0.06389470398426056,0.16084447503089905,-0.6217546463012695,-2.6262574195861816,-0.34491753578186035,-0.3058278262615204
1738573502.920455,0.008449837565422058,0.08293271064758301,-0.7235469222068787,-1.6275124549865723,-0.9926003217697144,-0.10096228867769241
1738573502.93989,0.016308516263961792,0.05913323163986206,-0.5922657251358032,-1.2168689966201782,-1.336592674255371,0.1156398206949234
1738573502.961197,-0.022137731313705444,-0.003317907452583313,-0.5745436549186707,-1.1005523204803467,-1.0163968801498413,0.09128835052251816
1738573502.979924,-0.004855677485466003,-0.04616205394268036,-0.5336548686027527,-1.0358161926269531,-0.3446267247200012,0.05439377576112747
1738573502.99985,0.015656784176826477,-0.06225806474685669,-0.40327441692352295,-1.169872522354126,0.23896051943302155,0.09598137438297272
1738573503.019833,-0.0014086365699768066,-0.09312354028224945,-0.37645697593688965,-1.2022874355316162,0.5128360390663147,0.11220423877239227
1738573503.039809,-0.0727541595697403,-0.14550042152404785,-0.45198220014572144,-0.834935188293457,0.5480541586875916,-0.056416526436805725
1738573503.060114,-0.0791340321302414,-0.16620506346225739,-0.47686272859573364,-0.25258418917655945,0.39842960238456726,-0.30278611183166504
