timestamp,acc_x,acc_y,acc_z,rot_x,rot_y,rot_z
1738573518.279367,0.05642728507518768,0.03261539340019226,0.06866347789764404,-0.4972839951515198,-0.3070814311504364,-0.16590091586112976
1738573518.280223,-0.0005539953708648682,0.022044092416763306,-0.02401965856552124,-0.3661262094974518,-0.15252161026000977,-0.19441282749176025
1738573518.29538,0.02818673849105835,0.021832317113876343,-0.1251271367073059,-0.1070626899600029,0.04171549901366234,-0.1506618857383728
1738573518.315341,0.0612824410200119,0.03473617136478424,-0.07217651605606079,-0.06173442304134369,0.11021044105291367,-0.020479969680309296
1738573518.3358312,0.059127211570739746,0.02574610710144043,-0.040324628353118896,-0.0765150636434555,0.019686827436089516,0.06087541580200195
1738573518.3551111,0.02101200819015503,0.002720057964324951,-0.07875633239746094,0.007490947842597961,-0.13060665130615234,0.03266587480902672
1738573518.3752189,0.005163535475730896,0.0002810359001159668,-0.10859543085098267,0.08555568754673004,-0.17997628450393677,-0.019313272088766098
1738573518.395022,0.014116808772087097,-0.003129735589027405,-0.11945796012878418,0.10844386368989944,-0.031406886875629425,-0.013557571917772293
1738573518.415113,0.014377966523170471,-0.022958755493164062,-0.15250754356384277,0.12167191505432129,0.13933254778385162,-0.021723506972193718
1738573518.436233,0.00846126675605774,-0.0369827002286911,-0.18367069959640503,0.13564740121364594,0.19599109888076782,-0.012134996242821217
1738573518.455058,-0.012710392475128174,-0.04553075134754181,-0.26425737142562866,0.25608471035957336,0.11045820266008377,-0.0473129041492939
1738573518.4754028,-0.05304229259490967,-0.04991410672664642,-0.3946143388748169,0.4968860149383545,0.006940834689885378,-0.17730391025543213
1738573518.495264,-0.06617535650730133,-0.06667502224445343,-0.5436094999313354,0.8615573644638062,0.10044977813959122,-0.31521278619766235
1738573518.515279,-0.045611172914505005,-0.0529007613658905,-0.5941213965415955,1.079728364944458,0.3104480504989624,-0.36102917790412903
1738573518.5352159,-0.030679360032081604,-0.050030022859573364,-0.6962702870368958,1.4022191762924194,0.4753014147281647,-0.3633817434310913
1738573518.555169,-0.05028844624757767,-0.028772741556167603,-0.8390769362449646,1.8289339542388916,0.5545831322669983,-0.39626139402389526
1738573518.575204,-0.1159469336271286,-0.0010159611701965332,-0.9206145405769348,2.32584547996521,0.9789114594459534,-0.494312047958374
1738573518.595968,-0.05095059797167778,0.039051443338394165,-0.8438146114349365,2.7208309173583984,1.1531507968902588,-0.3758854866027832
1738573518.615237,0.016640078276395798,0.09443697333335876,-0.7698540091514587,3.149789571762085,1.025789499282837,-0.1084531918168068
1738573518.63837,-0.035979270935058594,0.1407783031463623,-0.7729906439781189,3.5658979415893555,1.0211673974990845,-0.0032353936694562435
1738573518.655484,-0.10130220651626587,0.20809119939804077,-0.6788987517356873,3.7236711978912354,1.2196012735366821,0.01299227960407734
1738573518.6748018,-0.12022306025028229,0.27204519510269165,-0.6195319890975952,3.897217273712158,1.317976713180542,0.07102560251951218
1738573518.695091,-0.1609293818473816,0.35156434774398804,-0.6029368042945862,4.188235282897949,1.3983830213546753,0.0927150696516037
1738573518.715316,-0.14953073859214783,0.42302459478378296,-0.49468696117401123,4.4109930992126465,1.5154885053634644,0.15162809193134308
1738573518.738884,-0.159633070230484,0.5340974926948547,-0.3157413601875305,4.451929092407227,1.4902576208114624,0.22347642481327057
1738573518.755735,-0.1941237449645996,0.5958678126335144,-0.29945629835128784,4.715612888336182,1.4083982706069946,0.17746619880199432
1738573518.774816,-0.21378114819526672,0.6716076731681824,-0.24970456957817078,4.960580348968506,1.3782457113265991,0.07471192628145218
1738573518.795518,-0.16742247343063354,0.7372193336486816,-0.1009049117565155,5.015708923339844,1.5333454608917236,0.057707399129867554
1738573518.814923,-0.1322913020849228,0.8104905486106873,0.02452114224433899,4.925934791564941,1.7449016571044922,0.13215863704681396
1738573518.834784,-0.10853499174118042,0.8351569771766663,0.11609882116317749,4.734512805938721,1.965102195739746,0.21519485116004944
1738573518.855469,-0.10769763588905334,0.8196784257888794,0.25740158557891846,4.24838924407959,2.0177011489868164,0.24191060662269592
1738573518.874683,-0.15299522876739502,0.769291341304779,0.40247392654418945,3.646716833114624,1.968963861465454,0.058925677090883255
1738573518.8960118,-0.21493196487426758,0.7006681561470032,0.5336642265319824,2.9283955097198486,2.17539644241333,-0.2883010804653168
1738573518.914748,-0.24311938881874084,0.6234605312347412,0.7070372104644775,2.039069890975952,2.2426905632019043,-0.6681828498840332
1738573518.934569,-0.2257615476846695,0.5959460139274597,0.7498350143432617,1.3266023397445679,2.074733018875122,-0.8369060754776001
1738573518.9564672,-0.13927853107452393,0.5933459997177124,0.7947349548339844,0.6939652562141418,1.6701600551605225,-0.5667113065719604
1738573518.974746,-0.09053796529769897,0.5370350480079651,0.7998921871185303,0.2239508032798767,0.8848826289176941,-0.1802738606929779
1738573518.995605,-0.12167847156524658,0.48845434188842773,0.785009503364563,-0.1776740700006485,0.13919682800769806,0.13961359858512878
1738573519.014903,-0.1590936928987503,0.4650076627731323,0.7732057571411133,-0.651714563369751,-0.48380398750305176,0.34821051359176636
1738573519.034752,-0.21774744987487793,0.42804157733917236,0.73714280128479,-1.202988862991333,-0.9782835245132446,0.3148510456085205
1738573519.055026,-0.2617065906524658,0.39107269048690796,0.640345573425293,-1.7234457731246948,-1.0739010572433472,0.1266290843486786
1738573519.074586,-0.26535117626190186,0.366579532623291,0.5956082344055176,-2.371612787246704,-0.6849564909934998,-0.1653376817703247
1738573519.095964,-0.2330276370048523,0.37026774883270264,0.5867160558700562,-3.0871315002441406,-0.08534771203994751,-0.4621609151363373
1738573519.1145601,-0.24332652986049652,0.4094880223274231,0.4778757691383362,-3.4177680015563965,0.12666553258895874,-0.7680503129959106
1738573519.134377,-0.24587219953536987,0.42656266689300537,0.3235240578651428,-3.325179100036621,-0.2918258011341095,-0.9439495205879211
1738573519.154782,-0.1636744737625122,0.4430636167526245,0.3043375015258789,-3.2221221923828125,-1.0216193199157715,-0.8137027621269226
1738573519.1742492,-0.08720284700393677,0.47061383724212646,0.3546745777130127,-3.407320976257324,-1.5017493963241577,-0.4960167706012726
1738573519.195633,-0.07710632681846619,0.4874531626701355,0.42147207260131836,-3.969818115234375,-1.6523451805114746,-0.25911903381347656
1738573519.214432,-0.19875945150852203,0.5153310894966125,0.2500360310077667,-4.206682205200195,-1.7931582927703857,-0.36537426710128784
1738573519.234576,-0.25405949354171753,0.4912577271461487,0.06494927406311035,-4.129472732543945,-1.856832504272461,-0.5620534420013428
1738573519.255663,-0.17520758509635925,0.49785810708999634,-0.003612518310546875,-3.9121358394622803,-1.7652227878570557,-0.5022721290588379
1738573519.2742028,-0.10729376971721649,0.5177342891693115,0.028145551681518555,-3.8605337142944336,-1.445789098739624,-0.31415244936943054
1738573519.296094,-0.22059385478496552,0.5100046396255493,-0.03672510385513306,-3.8495500087738037,-0.9784770607948303,-0.5688286423683167
1738573519.3143559,-0.509335458278656,0.43909120559692383,-0.4284855127334595,-2.921130418777466,-1.0706371068954468,-1.5296930074691772
1738573519.334247,-0.5126709938049316,0.34629756212234497,-0.7390590310096741,-1.7614222764968872,-1.887405514717102,-2.4078874588012695
1738573519.356044,-0.19356615841388702,0.3032500147819519,-0.45332980155944824,-1.685455322265625,-2.140029191970825,-2.3739562034606934
1738573519.374059,0.07816843688488007,0.33767378330230713,-0.1584087610244751,-2.3845903873443604,-1.58112633228302,-1.637261986732483
1738573519.395519,0.21766065061092377,0.2578771710395813,-0.01590055227279663,-3.2271814346313477,-1.123873233795166,-0.7594797611236572
1738573519.414163,0.14352209866046906,0.24098211526870728,-0.17954671382904053,-3.3690574169158936,-2.066321849822998,-0.22581852972507477
1738573519.434071,-0.039543017745018005,0.21227747201919556,-0.5445804595947266,-2.5806803703308105,-3.088003635406494,-0.10165521502494812
1738573519.4555612,-0.14664167165756226,0.20197433233261108,-0.5121467113494873,-2.3724184036254883,-3.065732717514038,-0.19645096361637115
1738573519.474222,-0.12668408453464508,0.19214066863059998,-0.2717462182044983,-3.051010847091675,-2.376934289932251,-0.3080379068851471
1738573519.493865,-0.0996544137597084,0.22271600365638733,-0.39507150650024414,-3.343348503112793,-1.953252911567688,-0.361505389213562
1738573519.513876,-0.15714770555496216,0.15421944856643677,-0.8149188160896301,-2.481452465057373,-1.3941153287887573,-0.4735448360443115
1738573519.533829,-0.13737468421459198,0.10515773296356201,-0.8350275158882141,-1.9030269384384155,-0.8237853646278381,-0.5976520776748657
1738573519.556174,-0.03636901080608368,0.057924896478652954,-0.6194984912872314,-1.788893222808838,-0.38016441464424133,-0.5727955102920532
1738573519.573772,0.06149987876415253,0.04388482868671417,-0.5316241383552551,-1.6467804908752441,-0.3911391496658325,-0.4264037311077118
1738573519.595675,0.09742780029773712,0.03102617710828781,-0.5414124131202698,-1.3174558877944946,-0.5811445713043213,-0.3057493567466736
1738573519.6137471,0.020026490092277527,-0.0004963353276252747,-0.5827087759971619,-0.842292845249176,-0.2977825999259949,-0.42044633626937866
1738573519.633788,-0.006558701395988464,-0.02633386105298996,-0.4933164715766907,-0.6707109808921814,0.31302154064178467,-0.5961048603057861
1738573519.655908,0.04326152801513672,-0.06635884940624237,-0.410854697227478,-0.6368899941444397,1.2085633277893066,-0.6205191612243652
1738573519.6736798,0.057296231389045715,-0.06881335377693176,-0.31478846073150635,-0.7180910706520081,1.9442249536514282,-0.45345601439476013
1738573519.6936011,0.05830051749944687,-0.03354094177484512,-0.18022090196609497,-0.7969902753829956,1.8027335405349731,-0.20301766693592072
