timestamp,acc_x,acc_y,acc_z,rot_x,rot_y,rot_z
1738573505.905895,0.12683308124542236,0.03211688995361328,0.11808943748474121,-0.275368869304657,-0.7770172953605652,0.07865343242883682
1738573505.906738,-0.003948643803596497,0.09224241971969604,0.15953630208969116,-0.5629947781562805,-0.6587479710578918,0.1413976401090622
1738573505.910822,0.021401353180408478,0.10659414529800415,0.09814959764480591,-0.845657229423523,-0.502911388874054,0.23357252776622772
1738573505.931323,-0.019974075257778168,0.05343139171600342,-0.04264289140701294,-0.7886791825294495,-0.3114721477031708,0.13943825662136078
1738573505.9509401,-0.03548913449048996,0.026534944772720337,-0.1253259778022766,-0.5634697675704956,-0.2719886302947998,-0.04041316360235214
1738573505.9713578,-0.01779242604970932,0.020735740661621094,-0.08283442258834839,-0.5037775039672852,-0.271668404340744,-0.10720769315958023
1738573505.9909902,-0.0035354718565940857,0.007823958992958069,-0.054506897926330566,-0.5485249161720276,-0.3309800326824188,-0.13956230878829956
1738573506.011075,-0.012876667082309723,-0.006696775555610657,-0.06894862651824951,-0.560020923614502,-0.3255443274974823,-0.1967637687921524
1738573506.031443,-0.007688991725444794,-0.022368401288986206,-0.10452699661254883,-0.5091647505760193,-0.2565872371196747,-0.24639269709587097
1738573506.050972,0.0010890066623687744,-0.021920084953308105,-0.15395820140838623,-0.386646032333374,-0.1268860101699829,-0.23331591486930847
1738573506.0712419,0.005110211670398712,-0.04151010513305664,-0.17307043075561523,-0.24881669878959656,-0.050412364304065704,-0.22730524837970734
1738573506.091265,-0.013954564929008484,-0.069655641913414,-0.19564038515090942,-0.037160724401474,-0.10907717794179916,-0.27814915776252747
1738573506.111209,-0.017899978905916214,-0.08524136245250702,-0.24089056253433228,0.3009645342826843,-0.2453998327255249,-0.29103758931159973
1738573506.133294,-0.005920160561800003,-0.09997446835041046,-0.25603437423706055,0.5454351305961609,-0.3183063566684723,-0.22115826606750488
1738573506.150999,0.0009913891553878784,-0.1114969402551651,-0.2274951934814453,0.557127058506012,-0.30578485131263733,-0.1776454895734787
1738573506.172854,-0.005632549524307251,-0.14883247017860413,-0.2287071943283081,0.49729806184768677,-0.23059529066085815,-0.21054881811141968
1738573506.19097,-0.029498085379600525,-0.16180261969566345,-0.34861576557159424,0.6461344957351685,-0.3583005964756012,-0.2388065755367279
1738573506.2109032,-0.04130835086107254,-0.1876060962677002,-0.5419686436653137,1.1331863403320312,-0.5058386921882629,-0.28510817885398865
1738573506.231005,-0.05292872339487076,-0.20007699728012085,-0.6312366127967834,1.5925847291946411,-0.6430867910385132,-0.45248010754585266
1738573506.251234,-0.0611022487282753,-0.1697174310684204,-0.6921738386154175,2.019718647003174,-0.5972042083740234,-0.5283315181732178
1738573506.271216,-0.04284416139125824,-0.10133138298988342,-0.7726078629493713,2.5461223125457764,-0.4010784327983856,-0.49058908224105835
1738573506.29091,-0.03933142125606537,-0.019377082586288452,-0.7297481894493103,2.7336158752441406,-0.27510201930999756,-0.47737014293670654
1738573506.3110108,-0.07793533802032471,0.0279558002948761,-0.6126836538314819,2.687786817550659,0.12587520480155945,-0.4790729284286499
1738573506.331157,-0.08357317745685577,0.09840890765190125,-0.6739848256111145,2.8716516494750977,0.5175918936729431,-0.5599536299705505
1738573506.350442,-0.030002042651176453,0.16443490982055664,-0.7156577110290527,3.232630729675293,1.49726402759552,-0.5732683539390564
1738573506.370757,0.05037619173526764,0.3221317529678345,-0.6787961721420288,3.278299331665039,3.3245291709899902,-0.23754200339317322
1738573506.390328,0.0061143189668655396,0.47467440366744995,-0.5578886270523071,2.8612966537475586,5.039429187774658,0.48166418075561523
1738573506.4103541,-0.04662229120731354,0.5647071599960327,-0.494647741317749,2.654099941253662,5.563068866729736,1.3231549263000488
1738573506.431128,-0.07227721810340881,0.5971886515617371,-0.3803252577781677,2.927227735519409,4.902184963226318,1.69577157497406
1738573506.450489,-0.12264326214790344,0.6216534376144409,-0.2417868971824646,3.7596805095672607,3.9785804748535156,1.6134673357009888
1738573506.471322,-0.06253814697265625,0.6186565160751343,-0.1578308343887329,4.209441184997559,2.8372626304626465,1.6968973875045776
1738573506.490305,-0.014693766832351685,0.6445002555847168,0.06914177536964417,4.155332088470459,1.8066495656967163,1.9229252338409424
1738573506.510351,0.051564693450927734,0.6114636659622192,0.11129415035247803,4.159253120422363,0.928589403629303,2.0233707427978516
1738573506.53129,0.03868681192398071,0.6025789976119995,0.18412089347839355,4.0341901779174805,0.15426819026470184,2.0378592014312744
1738573506.55057,0.03184618055820465,0.5927116274833679,0.2543661594390869,3.7793779373168945,-0.31584152579307556,1.9890563488006592
1738573506.570457,0.04230917990207672,0.5534319877624512,0.2921154499053955,3.419111490249634,-0.5105605721473694,1.9257376194000244
1738573506.590201,0.02204027771949768,0.5018205642700195,0.29144835472106934,3.011103391647339,-0.3020704388618469,1.7571715116500854
1738573506.6102881,-0.06240154057741165,0.4592832922935486,0.3247668743133545,2.5431289672851562,0.19841726124286652,1.44983971118927
1738573506.6315851,-0.11328523606061935,0.4165031909942627,0.34879040718078613,2.097973346710205,0.6066963076591492,1.132033109664917
1738573506.650166,-0.15536177158355713,0.3673914670944214,0.3556389808654785,1.779255986213684,0.7756918668746948,0.8241088390350342
1738573506.6706681,-0.18167349696159363,0.3231487274169922,0.4193342924118042,1.3786320686340332,0.7210350632667542,0.5689356327056885
1738573506.69046,-0.20071133971214294,0.28436243534088135,0.47423577308654785,0.9753556847572327,0.5645022392272949,0.36629730463027954
1738573506.7100039,-0.2302561104297638,0.2908710241317749,0.540855884552002,0.4544771611690521,0.39197638630867004,0.2515638470649719
1738573506.729961,-0.24755215644836426,0.281033456325531,0.5700631141662598,-0.023682333528995514,0.2291359305381775,0.18196505308151245
1738573506.749959,-0.24720102548599243,0.2729851007461548,0.5516269207000732,-0.3651164770126343,-0.1744612157344818,0.15236471593379974
1738573506.7698588,-0.2677546441555023,0.2786238193511963,0.524904727935791,-0.6192027926445007,-0.661419153213501,0.12172973901033401
1738573506.790148,-0.28819581866264343,0.2758420705795288,0.526182234287262,-0.951044499874115,-1.0933140516281128,0.025552380830049515
1738573506.810226,-0.2918804883956909,0.2746613025665283,0.528425931930542,-1.4064327478408813,-1.3915362358093262,-0.12257034331560135
1738573506.8301659,-0.2964986264705658,0.28301846981048584,0.4339146614074707,-1.733404278755188,-1.4726225137710571,-0.30862873792648315
1738573506.850215,-0.28421762585639954,0.31262218952178955,0.3719816207885742,-2.0650858879089355,-1.3623653650283813,-0.4936257302761078
1738573506.8704162,-0.2824649214744568,0.31499385833740234,0.32250022888183594,-2.361906051635742,-1.2414780855178833,-0.7218663096427917
1738573506.889941,-0.28058603405952454,0.33034032583236694,0.2934950590133667,-2.67600417137146,-1.209399938583374,-1.021573781967163
1738573506.910224,-0.2590915262699127,0.3508508801460266,0.23605483770370483,-2.930314779281616,-1.2950804233551025,-1.2410255670547485
1738573506.930054,-0.18989312648773193,0.3648701310157776,0.16604864597320557,-3.1864073276519775,-1.2416199445724487,-1.3552687168121338
1738573506.950223,-0.14492172002792358,0.38751280307769775,0.14985692501068115,-3.499499559402466,-0.9711149334907532,-1.3843847513198853
1738573506.970117,-0.12546274065971375,0.4229225516319275,0.10472935438156128,-3.4971518516540527,-0.656225323677063,-1.4151768684387207
1738573506.990285,-0.16603532433509827,0.4651221036911011,0.058545708656311035,-3.1376404762268066,-0.7749386429786682,-1.4298523664474487
1738573507.0101929,-0.16513343155384064,0.458418607711792,0.05529305338859558,-2.884230852127075,-1.1395634412765503,-1.418205976486206
1738573507.033006,-0.1239394098520279,0.47296446561813354,0.19650259613990784,-3.0966620445251465,-1.3509840965270996,-1.3198606967926025
1738573507.049662,-0.14380963146686554,0.48810988664627075,0.271017849445343,-3.709176540374756,-1.5073390007019043,-1.332051157951355
1738573507.069531,-0.1368352770805359,0.5111483335494995,0.10876131057739258,-3.9165232181549072,-1.5680543184280396,-1.2976837158203125
1738573507.089905,-0.1565573513507843,0.5064521431922913,-0.0895075798034668,-3.6077728271484375,-1.6614621877670288,-1.300592064857483
1738573507.109858,-0.1368047446012497,0.48172318935394287,-0.15760695934295654,-3.3344650268554688,-1.5250517129898071,-1.2714130878448486
1738573507.129885,-0.12184664607048035,0.48236656188964844,-0.0658031702041626,-3.5030875205993652,-1.1915507316589355,-1.1994431018829346
1738573507.14985,-0.09672534465789795,0.4619550108909607,-0.03553617000579834,-3.8163373470306396,-1.0435367822647095,-1.136977195739746
1738573507.169821,-0.15805615484714508,0.417735755443573,-0.07028782367706299,-3.9412403106689453,-1.4534152746200562,-1.3087568283081055
1738573507.1902251,-0.19058844447135925,0.3922401964664459,-0.2484322190284729,-3.573030710220337,-2.530822515487671,-1.4380069971084595
1738573507.209593,0.02666817605495453,0.3772432506084442,-0.442518413066864,-3.0340287685394287,-3.373459815979004,-0.9850665926933289
1738573507.233438,0.07931273430585861,0.3620297610759735,-0.5272933840751648,-2.79349422454834,-3.5472512245178223,-0.49278584122657776
1738573507.25066,-0.03574264794588089,0.31141456961631775,-0.5728781819343567,-2.739680051803589,-2.8876521587371826,-0.442069411277771
1738573507.269881,-0.1348019689321518,0.26319050788879395,-0.5187390446662903,-3.1460325717926025,-1.8618148565292358,-0.701924204826355
1738573507.289741,-0.040019817650318146,0.2295428067445755,-0.6454373598098755,-3.342414379119873,-1.183029055595398,-0.797621488571167
1738573507.309854,0.11418765783309937,0.17901313304901123,-0.9090340733528137,-2.614788055419922,-0.702197790145874,-0.4825250804424286
1738573507.329478,0.1207764744758606,0.10700778663158417,-0.9360573887825012,-1.6181093454360962,-0.6340681314468384,-0.2504158020019531
1738573507.3496141,0.06366358697414398,0.03230038285255432,-0.7387567758560181,-1.1042336225509644,-0.9111762642860413,-0.2584349811077118
1738573507.369637,0.07754509150981903,-0.023539915680885315,-0.5841149091720581,-1.0100481510162354,-0.975568413734436,-0.25023406744003296
1738573507.390126,0.1482272446155548,-0.04468708485364914,-0.5727312564849854,-0.816931962966919,-0.5032522678375244,-0.07957342267036438
1738573507.409451,0.14440615475177765,-0.06094188615679741,-0.5596338510513306,-0.6034993529319763,0.29244285821914673,0.08891896903514862
1738573507.432873,0.12322928011417389,-0.0906505361199379,-0.5387671589851379,-0.3475024104118347,0.9760057330131531,0.2548976540565491
