timestamp,acc_x,acc_y,acc_z,rot_x,rot_y,rot_z
1738564445.806302,0.0336032509803772,-0.014382854104042053,0.050344228744506836,-0.4084101915359497,-0.24120287597179413,-0.024216048419475555
1738564445.8074741,-0.03265220671892166,-0.006056897342205048,-0.005710005760192871,-0.34264761209487915,-0.04059157520532608,-0.016327794641256332
1738564445.82092,-0.006508007645606995,0.007656723260879517,-0.08218550682067871,-0.06918402016162872,-0.005205437541007996,-0.01155499555170536
1738564445.841069,0.0056357234716415405,-0.010846912860870361,-0.05859053134918213,0.09137178957462311,-0.005481550935655832,0.010348420590162277
1738564445.8608742,-0.014537528157234192,-0.003594011068344116,-0.010441124439239502,0.11305581033229828,0.009976739063858986,-0.021061573177576065
1738564445.880713,-0.010919563472270966,-0.01083536446094513,0.0321657657623291,-0.0037722745910286903,0.01755315251648426,-0.05471504479646683
1738564445.900765,-0.007875673472881317,-0.006636030972003937,0.030122041702270508,-0.08531344681978226,0.05228210240602493,-0.06887803226709366
1738564445.920717,0.008835867047309875,0.0020997226238250732,0.012428522109985352,-0.08956386893987656,0.07697735726833344,-0.051193997263908386
1738564445.941509,0.015779003500938416,0.01046702265739441,0.011900067329406738,-0.08792302757501602,0.062163710594177246,-0.0020358669571578503
1738564445.9607701,0.00729023665189743,0.0022764578461647034,0.011209487915039062,-0.07310649752616882,0.004723009187728167,-0.004830101504921913
1738564445.981573,0.0017155185341835022,-0.008845619857311249,0.00207674503326416,-0.06745575368404388,-0.01534898392856121,-0.028041373938322067
1738564446.000936,0.0012761875987052917,-0.006917387247085571,-0.010670363903045654,-0.07261747121810913,-0.022903362289071083,-0.056396808475255966
1738564446.020845,0.005121767520904541,-0.0035481229424476624,-0.026646077632904053,-0.05220478028059006,0.0014586187899112701,-0.04815604165196419
1738564446.042609,0.005711615085601807,-0.007918864488601685,-0.05763852596282959,0.020731627941131592,0.02238374762237072,-0.029345523566007614
1738564446.0608,0.001213662326335907,-0.019187740981578827,-0.05353391170501709,0.054593317210674286,0.030484648421406746,-0.054298464208841324
1738564446.080931,-0.008949905633926392,-0.013961881399154663,-0.032806396484375,0.026004068553447723,0.045633185654878616,-0.08850035816431046
1738564446.101081,-0.022155530750751495,-0.0029272735118865967,-0.0657842755317688,0.0310077965259552,-0.059922169893980026,-0.13621245324611664
1738564446.120767,-0.03159046918153763,0.008825480937957764,-0.15605878829956055,0.09862670302391052,-0.2616824209690094,-0.18264466524124146
1738564446.142263,-0.02541208267211914,-0.010021790862083435,-0.24081164598464966,0.192026749253273,-0.33738893270492554,-0.2272544503211975
1738564446.1607041,-0.07224979996681213,-0.0032684653997421265,-0.3456425666809082,0.4058906137943268,-0.2819150388240814,-0.34135109186172485
1738564446.180671,-0.08262696862220764,-0.007586881518363953,-0.4560922384262085,0.7796672582626343,-0.2827489972114563,-0.47641193866729736
1738564446.200626,-0.08037742972373962,0.023034140467643738,-0.49899011850357056,1.1023287773132324,-0.28965842723846436,-0.5816571116447449
1738564446.220711,-0.05789557099342346,0.04302626848220825,-0.484846830368042,1.268066644668579,-0.21124966442584991,-0.6598936319351196
1738564446.242718,-0.04856109619140625,0.06020519137382507,-0.5249715447425842,1.5055975914001465,-0.043894749134778976,-0.7174856066703796
1738564446.2605472,-0.055851563811302185,0.07567116618156433,-0.5849248170852661,1.9114766120910645,0.2878325283527374,-0.771203875541687
1738564446.282291,-0.06313858926296234,0.09316033124923706,-0.5284414887428284,2.265793800354004,0.7086900472640991,-0.8631117343902588
1738564446.300437,-0.03221708536148071,0.12986451387405396,-0.35001271963119507,2.2758853435516357,1.066269874572754,-0.8618194460868835
1738564446.320879,0.01432190090417862,0.15050646662712097,-0.24193710088729858,2.26064395904541,1.3010284900665283,-0.7037491798400879
1738564446.341625,0.0663762241601944,0.1639079749584198,-0.1561797857284546,2.1871705055236816,1.187046766281128,-0.4272107779979706
1738564446.3604732,0.09765936434268951,0.1823081374168396,-0.14199531078338623,2.1924803256988525,0.7440872192382812,-0.09723623842000961
1738564446.380437,0.046614497900009155,0.20060300827026367,-0.27440279722213745,2.5062520503997803,0.3028910458087921,0.13534358143806458
1738564446.400418,0.01428607851266861,0.21463805437088013,-0.3129640817642212,2.79375958442688,-0.024590924382209778,0.2707798480987549
1738564446.420385,-0.0020195282995700836,0.2274150848388672,-0.27755558490753174,2.905665874481201,-0.1541823446750641,0.3738730847835541
1738564446.442955,-0.015360817313194275,0.23835831880569458,-0.25950103998184204,2.951212167739868,-0.15280871093273163,0.39284077286720276
1738564446.460401,-0.09059256315231323,0.25442439317703247,-0.30360329151153564,3.0776021480560303,0.08051793277263641,0.22680805623531342
1738564446.4803262,-0.14098408818244934,0.27196455001831055,-0.2957184910774231,3.1820993423461914,0.42776691913604736,-0.04082070291042328
1738564446.501051,-0.11749187856912613,0.3066096305847168,-0.22793501615524292,3.23603892326355,0.7326568961143494,-0.22167906165122986
1738564446.520279,-0.06699134409427643,0.3588756322860718,-0.11861693859100342,3.1800930500030518,1.0397285223007202,-0.2211475968360901
1738564446.542479,-0.033561885356903076,0.39413273334503174,-0.04145324230194092,3.109639883041382,1.2025566101074219,-0.13969583809375763
1738564446.560452,-0.030976489186286926,0.4106598496437073,-0.0015228986740112305,3.059173345565796,1.1004209518432617,-0.04106726497411728
1738564446.5803819,-0.037915438413619995,0.4026244282722473,-0.046315282583236694,3.2704691886901855,0.9626941680908203,0.03311198949813843
1738564446.6004338,-0.010310783982276917,0.4065030813217163,-0.012601375579833984,3.4178833961486816,0.8292750716209412,0.13859453797340393
1738564446.6201491,-0.0062625594437122345,0.40528273582458496,0.06172749400138855,3.3270246982574463,1.1015453338623047,0.20580118894577026
1738564446.642953,-0.03797418251633644,0.39631718397140503,0.1727711260318756,2.884965658187866,2.1626052856445312,0.18221032619476318
1738564446.660202,-0.057688385248184204,0.3568086624145508,0.21375781297683716,2.4183919429779053,3.5477263927459717,0.1631203293800354
1738564446.6806579,-0.036345258355140686,0.3567025661468506,0.24138683080673218,1.9301812648773193,4.381556510925293,0.32470592856407166
1738564446.700294,0.002892136573791504,0.35842418670654297,0.1712815761566162,1.7698793411254883,4.303418159484863,0.7838063836097717
1738564446.720335,-0.013212885707616806,0.3143059015274048,-0.010204501450061798,2.223132610321045,3.3638389110565186,1.247656226158142
1738564446.742679,0.010328590869903564,0.2595708966255188,-0.011878907680511475,2.6192378997802734,1.9651933908462524,1.6589343547821045
1738564446.76026,0.02276936173439026,0.20708441734313965,0.03963494300842285,2.869957208633423,0.7228506207466125,1.8987904787063599
1738564446.7805018,0.02079562470316887,0.1823703646659851,0.11905131489038467,2.8144869804382324,0.11267222464084625,1.9370907545089722
1738564446.800293,0.0008457005023956299,0.1799638867378235,0.23364198207855225,2.3529751300811768,0.19242049753665924,1.8502378463745117
1738564446.820362,-0.026689842343330383,0.18334311246871948,0.21309617161750793,1.9642059803009033,0.6056060791015625,1.7058038711547852
1738564446.843503,-0.050302743911743164,0.16137635707855225,0.14890456199645996,1.7472532987594604,0.9156215786933899,1.548053503036499
1738564446.859838,-0.09541863203048706,0.15392369031906128,0.07306745648384094,1.7863943576812744,1.0878117084503174,1.352465271949768
1738564446.8798552,-0.12907665967941284,0.15223264694213867,0.04853415489196777,1.9314013719558716,1.190826654434204,1.1876035928726196
1738564446.900199,-0.1662583351135254,0.15107691287994385,0.14293846487998962,1.8665372133255005,1.355265736579895,0.99437415599823
1738564446.919822,-0.21291866898536682,0.16411322355270386,0.321818083524704,1.4451650381088257,1.6529756784439087,0.7794528603553772
1738564446.9427361,-0.27423059940338135,0.1693611741065979,0.4584481120109558,0.8570345640182495,1.8399213552474976,0.537516176700592
1738564446.9603271,-0.3502894639968872,0.1715942621231079,0.46950775384902954,0.44656693935394287,1.6877570152282715,0.25126421451568604
1738564446.979819,-0.3834749460220337,0.1534847617149353,0.4440411925315857,0.22554275393486023,1.1831570863723755,-0.03518807142972946
1738564446.999898,-0.3915185034275055,0.1412675976753235,0.4496418535709381,0.021737508475780487,0.5064449310302734,-0.3017813265323639
1738564447.020088,-0.36506664752960205,0.1448754072189331,0.47172811627388,-0.2728803753852844,-0.08371967077255249,-0.5268937945365906
1738564447.039788,-0.2885166108608246,0.14043456315994263,0.4200597107410431,-0.5328963398933411,-0.5568983554840088,-0.6675270795822144
1738564447.059699,-0.22524389624595642,0.14306026697158813,0.3710446059703827,-0.7789540886878967,-0.8899561166763306,-0.7989014983177185
1738564447.079643,-0.1769237220287323,0.16311848163604736,0.33582043647766113,-1.027830958366394,-0.9636695384979248,-0.8996659517288208
1738564447.0996451,-0.1389293670654297,0.18211519718170166,0.3044968545436859,-1.2946869134902954,-0.8295118808746338,-0.9945206046104431
1738564447.119678,-0.0987841784954071,0.2056058645248413,0.2758308947086334,-1.532439112663269,-0.5737137198448181,-1.032427430152893
1738564447.143007,-0.055065155029296875,0.2170364260673523,0.23504364490509033,-1.6780799627304077,-0.40268492698669434,-0.9959598183631897
1738564447.16017,-0.059872448444366455,0.22112149000167847,0.18103161454200745,-1.6565502882003784,-0.49269190430641174,-0.9705289006233215
1738564447.179553,-0.10072170197963715,0.19668161869049072,0.19199183583259583,-1.6902145147323608,-0.7118949294090271,-1.0477807521820068
1738564447.19982,-0.12415160238742828,0.1776036024093628,0.2661327123641968,-1.9480195045471191,-0.8538713455200195,-1.1789982318878174
1738564447.219811,-0.11589537560939789,0.20355284214019775,0.29350829124450684,-2.3137764930725098,-0.9236704111099243,-1.2929823398590088
1738564447.239722,-0.06936582177877426,0.2358531355857849,0.25916922092437744,-2.6250193119049072,-0.9653071165084839,-1.2843540906906128
1738564447.260025,-0.0570986345410347,0.2598689794540405,0.1869276762008667,-2.777358055114746,-1.1231534481048584,-1.244980812072754
1738564447.279357,-0.07246777415275574,0.2728578448295593,0.13375335931777954,-2.8294684886932373,-1.3371286392211914,-1.24863862991333
1738564447.299365,-0.08604496717453003,0.2761140465736389,0.12510037422180176,-2.9215428829193115,-1.3042746782302856,-1.2746938467025757
1738564447.319253,-0.05897507071495056,0.28515344858169556,0.12115485966205597,-3.0716381072998047,-1.1758958101272583,-1.275851845741272
1738564447.3394861,-0.06184941530227661,0.2875460386276245,0.09570232033729553,-3.238192319869995,-0.9676433205604553,-1.3242830038070679
1738564447.359535,-0.08915898203849792,0.27474552392959595,0.04287174344062805,-3.345107316970825,-0.8319573402404785,-1.4763046503067017
1738564447.379384,-0.10444623231887817,0.26111793518066406,-0.027979731559753418,-3.243637800216675,-0.9467079639434814,-1.615530252456665
1738564447.399961,-0.047600358724594116,0.2534293532371521,-0.05729395151138306,-3.068716049194336,-1.2821080684661865,-1.5732372999191284
1738564447.419276,-0.018286243081092834,0.2551017999649048,-0.008156001567840576,-3.0836405754089355,-1.4841430187225342,-1.4446076154708862
1738564447.4392982,-0.031949423253536224,0.28588199615478516,0.04666489362716675,-3.2669742107391357,-1.4214997291564941,-1.3438360691070557
1738564447.459845,-0.08582385629415512,0.2926788330078125,-0.03986239433288574,-3.150571823120117,-1.413602590560913,-1.3407293558120728
1738564447.479515,-0.10679490864276886,0.2745634913444519,-0.1495063304901123,-2.8455545902252197,-1.4322799444198608,-1.4472315311431885
1738564447.5004869,0.005429670214653015,0.2598567008972168,-0.26872438192367554,-2.2562673091888428,-1.6641122102737427,-1.2173956632614136
1738564447.519131,0.2153494656085968,0.2676587700843811,-0.3404742479324341,-1.586574912071228,-2.3596339225769043,-0.546073317527771
1738564447.5389972,0.2890016436576843,0.2525046467781067,-0.1808428168296814,-1.649091124534607,-2.134136915206909,0.15175358951091766
1738564447.55967,0.1251724660396576,0.23598802089691162,-0.07742166519165039,-2.2128872871398926,-0.9741233587265015,0.294397234916687
1738564447.579104,3.6582350730895996e-05,0.1801348328590393,-0.13591039180755615,-2.56880259513855,0.06770173460245132,0.07817967236042023
1738564447.600243,0.03819359838962555,0.12838441133499146,-0.2152048945426941,-2.383498191833496,0.18122589588165283,0.05068733170628548
1738564447.6191201,0.054197415709495544,0.1287209391593933,-0.16059529781341553,-2.1191937923431396,-0.35189658403396606,0.13473396003246307
1738564447.638881,-0.026540040969848633,0.11216026544570923,-0.09969758987426758,-1.8929959535598755,-0.9481350779533386,0.07666117697954178
1738564447.659128,-0.04753930866718292,0.0850057601928711,-0.038548946380615234,-1.7540507316589355,-1.2124732732772827,-0.002831921447068453
1738564447.679223,-0.03716747462749481,0.09024176001548767,0.044241130352020264,-1.7823399305343628,-1.1020666360855103,0.004370597656816244
1738564447.699853,-0.07906995713710785,0.14485308527946472,0.11790269613265991,-2.1796152591705322,-0.7279440760612488,-0.0651753842830658
1738564447.719166,-0.07982195913791656,0.12589579820632935,0.08870559930801392,-2.668733596801758,-0.42689794301986694,-0.20028428733348846
1738564447.739109,-0.09735731780529022,0.11213243007659912,-0.0388602614402771,-2.9937984943389893,-0.22458429634571075,-0.34273552894592285
1738564447.759742,-0.07833120226860046,0.08386632800102234,-0.2456895112991333,-3.012195110321045,-0.4630100429058075,-0.40872806310653687
1738564447.778687,-0.024179905652999878,0.040816083550453186,-0.4737805724143982,-2.583805799484253,-1.2053687572479248,-0.2642306387424469
1738564447.800366,0.11345535516738892,-0.04390205442905426,-0.6642712950706482,-1.647958517074585,-1.8673324584960938,0.16917648911476135
1738564447.8187342,0.12792006134986877,-0.020218372344970703,-0.6602475643157959,-0.75722336769104,-1.9222108125686646,0.596714973449707
1738564447.838718,0.058974310755729675,0.00045862793922424316,-0.4835740327835083,-0.38813719153404236,-1.2009146213531494,0.7095154523849487
1738564447.860362,-0.04836796224117279,0.03810334950685501,-0.2597748637199402,-0.7051084637641907,-0.16693447530269623,0.43178513646125793
1738564447.878778,-0.04238566756248474,0.032647356390953064,-0.21173638105392456,-1.0001884698867798,0.5526332259178162,0.21082568168640137
1738564447.8998451,-0.01224207878112793,0.011019393801689148,-0.3623332381248474,-0.706604540348053,0.9926891922950745,0.1731475442647934
1738564447.9182901,0.035281091928482056,-0.009080648422241211,-0.3766792416572571,-0.25107342004776,1.0495188236236572,0.30035242438316345
