timestamp,acc_x,acc_y,acc_z,rot_x,rot_y,rot_z
1738564383.81407,0.021439671516418457,-0.026181817054748535,0.09194189310073853,-0.358671098947525,-0.5180569887161255,-0.2601641118526459
1738564383.8148232,-0.05706469714641571,-0.04616162180900574,0.031164467334747314,-0.45384421944618225,-0.09559442847967148,-0.2919497489929199
1738564383.821902,-0.01928877830505371,0.04496307671070099,-0.12511295080184937,-0.22304625809192657,0.1429402232170105,-0.3041326701641083
1738564383.844357,0.00694100558757782,0.01808740198612213,-0.13173937797546387,-0.02790370211005211,0.313144713640213,-0.2195766121149063
1738564383.861596,0.007065385580062866,0.014972783625125885,-0.14275813102722168,0.1701197326183319,0.2237527221441269,-0.16518434882164001
1738564383.8818521,0.002542436122894287,-0.014316923916339874,-0.14338892698287964,0.30195099115371704,0.03597506880760193,-0.12153748422861099
1738564383.90175,-0.008992865681648254,-0.02016545832157135,-0.13308846950531006,0.34440675377845764,-0.13064922392368317,-0.1039954349398613
1738564383.9216552,-0.029999330639839172,-0.014059662818908691,-0.16128194332122803,0.34464994072914124,-0.2070191502571106,-0.08449865877628326
1738564383.941617,-0.06269705295562744,-0.025964021682739258,-0.24147826433181763,0.42884817719459534,-0.20067737996578217,-0.12285160273313522
1738564383.961673,-0.11093504726886749,-0.03457966446876526,-0.350497841835022,0.6575990915298462,-0.12218525260686874,-0.27141138911247253
1738564383.9838881,-0.12760771811008453,-0.03214570879936218,-0.412300705909729,0.9172907471656799,-0.024187959730625153,-0.44221025705337524
1738564384.002094,-0.12116172909736633,-0.017179295420646667,-0.4901132583618164,1.3212515115737915,0.03420085087418556,-0.5305325388908386
1738564384.0221019,-0.09616640210151672,0.003815069794654846,-0.47732245922088623,1.6110634803771973,0.021380385383963585,-0.503783106803894
1738564384.043939,-0.10549908876419067,0.018698155879974365,-0.44916146993637085,1.769906759262085,-0.040187492966651917,-0.5521002411842346
1738564384.061722,-0.14436404407024384,0.04170885682106018,-0.48604816198349,1.8957242965698242,-0.07849214226007462,-0.7390950322151184
1738564384.081878,-0.1939692348241806,0.06999409198760986,-0.5926727652549744,2.1592931747436523,0.2235969454050064,-1.0182956457138062
1738564384.101798,-0.181960791349411,0.08468231558799744,-0.610350489616394,2.3339881896972656,0.8795304298400879,-1.2538617849349976
1738564384.121612,-0.1832040399312973,0.14399540424346924,-0.5347098708152771,2.3342459201812744,1.6434236764907837,-1.4329254627227783
1738564384.1442618,-0.16463810205459595,0.1888270080089569,-0.43831968307495117,2.296783447265625,2.3136849403381348,-1.5532108545303345
1738564384.161649,-0.1283634603023529,0.21346831321716309,-0.3681221008300781,2.3309481143951416,2.5553929805755615,-1.5287760496139526
1738564384.18171,-0.03551722317934036,0.2343759536743164,-0.35652589797973633,2.5848159790039062,2.364100933074951,-1.2634190320968628
1738564384.201963,0.08354376256465912,0.2542511820793152,-0.3765925168991089,2.9839255809783936,1.7415727376937866,-0.7964144945144653
1738564384.222116,0.11378716677427292,0.2988295555114746,-0.3720594048500061,3.3253066539764404,1.120314359664917,-0.2935227155685425
1738564384.2444038,0.07016555964946747,0.372147798538208,-0.37775397300720215,3.577285051345825,0.7202549576759338,0.0917281061410904
1738564384.261478,-0.011177368462085724,0.42104339599609375,-0.4337889552116394,3.9261841773986816,0.6901567578315735,0.25544273853302
1738564384.281347,-0.11696968972682953,0.4981634020805359,-0.38284116983413696,4.106523513793945,0.8160433769226074,0.19531315565109253
1738564384.3014588,-0.17058363556861877,0.5560060143470764,-0.30043119192123413,4.095847129821777,1.0354976654052734,0.053308699280023575
1738564384.3214312,-0.13408438861370087,0.5666883587837219,-0.2073068618774414,3.999155282974243,1.1965832710266113,-0.0066474424675107
1738564384.344442,-0.1089613288640976,0.5845711827278137,-0.1689845621585846,4.009006023406982,1.3747024536132812,-0.0032630478963255882
1738564384.3613582,-0.11858223378658295,0.628961443901062,-0.13054215908050537,4.016897678375244,1.4711824655532837,-0.002457916736602783
1738564384.381442,-0.09436541795730591,0.6460357308387756,-0.13933485746383667,4.169678211212158,1.5042905807495117,0.05208110064268112
1738564384.401743,-0.06021527945995331,0.6506783962249756,-0.08587515354156494,4.282632350921631,1.4910588264465332,0.16979825496673584
1738564384.421442,-0.03248237073421478,0.6450712084770203,-0.032738570123910904,4.325955867767334,1.3689018487930298,0.3108599781990051
1738564384.4445782,-0.00015045702457427979,0.6314904689788818,-0.05658460408449173,4.4783220291137695,1.2881748676300049,0.5224975943565369
1738564384.4616442,0.02658650279045105,0.600536048412323,-0.03913092613220215,4.575497150421143,1.2114312648773193,0.757296085357666
1738564384.4814801,0.030674561858177185,0.5817381143569946,-0.014376640319824219,4.632347106933594,1.2096388339996338,0.9687442779541016
1738564384.501081,0.027680255472660065,0.5719163417816162,0.05671849846839905,4.534902095794678,1.4466350078582764,1.1902883052825928
1738564384.521234,0.005754504352807999,0.5349571704864502,0.1848558783531189,4.129192352294922,1.65822172164917,1.3573795557022095
1738564384.541261,-0.08427678048610687,0.4565476179122925,0.35587650537490845,3.4944398403167725,1.9701104164123535,1.268349051475525
1738564384.5613241,-0.24677890539169312,0.3925130367279053,0.612407386302948,2.5356597900390625,2.315635919570923,0.7769823670387268
1738564384.581131,-0.39695677161216736,0.3618764281272888,0.8646118640899658,1.3617185354232788,2.7519357204437256,-0.03378386050462723
1738564384.601667,-0.5145698189735413,0.4238373041152954,0.8542072772979736,0.6022400856018066,3.1849071979522705,-0.8531857132911682
1738564384.621077,-0.5050192475318909,0.49719691276550293,0.8757440447807312,0.03181065618991852,3.2540152072906494,-1.3041598796844482
1738564384.642974,-0.3987959623336792,0.475236177444458,0.9200400114059448,-0.4860270619392395,2.529754638671875,-1.2787331342697144
1738564384.6618872,-0.27657902240753174,0.4174617528915405,0.8126378059387207,-0.7361230254173279,0.8931456208229065,-0.8898246884346008
1738564384.681165,-0.16597068309783936,0.3644055128097534,0.6360855102539062,-0.794597864151001,-1.0435446500778198,-0.2941174805164337
1738564384.701668,-0.07686146348714828,0.34103256464004517,0.5607628226280212,-0.9954480528831482,-2.302441120147705,0.2749932110309601
1738564384.721262,-0.062446095049381256,0.3472743630409241,0.4801711440086365,-1.2801628112792969,-2.709670066833496,0.6203070878982544
1738564384.740972,-0.06335928291082382,0.3630901575088501,0.39998549222946167,-1.6074334383010864,-2.4003705978393555,0.7570669054985046
1738564384.760956,-0.09154956787824631,0.38258540630340576,0.3607240319252014,-1.9574031829833984,-1.760118842124939,0.6807646751403809
1738564384.780836,-0.11216427385807037,0.3757888078689575,0.31317126750946045,-2.2378909587860107,-1.1883012056350708,0.4623527228832245
1738564384.801834,-0.1352916806936264,0.3698682188987732,0.2788347601890564,-2.4276974201202393,-0.9166834354400635,0.17530955374240875
1738564384.820735,-0.13007652759552002,0.3559509515762329,0.2817619740962982,-2.656412124633789,-0.7781599760055542,-0.10318610817193985
1738564384.840969,-0.10264816135168076,0.3794160485267639,0.3026561439037323,-2.990391254425049,-0.7031289339065552,-0.29830604791641235
1738564384.860878,-0.07121574133634567,0.4261170029640198,0.30115553736686707,-3.3488314151763916,-0.6752383708953857,-0.37203240394592285
1738564384.880815,-0.060398850589990616,0.46700114011764526,0.23350204527378082,-3.5748751163482666,-0.7307427525520325,-0.3804664611816406
1738564384.901329,-0.064429372549057,0.48247426748275757,0.1474473476409912,-3.6592469215393066,-0.8459349870681763,-0.3947172164916992
1738564384.9210238,-0.08733570575714111,0.49387359619140625,0.11189460754394531,-3.7438254356384277,-0.9304721355438232,-0.4416619837284088
1738564384.941083,-0.08696280419826508,0.5067955255508423,0.15857946872711182,-4.046123504638672,-0.981408417224884,-0.48405352234840393
1738564384.960393,-0.10118266940116882,0.5303359627723694,0.12037086486816406,-4.281591415405273,-1.0370434522628784,-0.5437554121017456
1738564384.980396,-0.13438591361045837,0.5527655482292175,0.04004761576652527,-4.351803302764893,-1.1872313022613525,-0.6529946327209473
1738564385.000159,-0.20089855790138245,0.5509935021400452,-0.057399243116378784,-4.275758743286133,-1.3859360218048096,-0.8578903079032898
1738564385.020272,-0.18403124809265137,0.5511669516563416,-0.10015195608139038,-4.294667720794678,-1.5340884923934937,-0.9725279211997986
1738564385.040275,-0.12651528418064117,0.5477586984634399,-0.08431673049926758,-4.508299350738525,-1.343477725982666,-0.9298498034477234
1738564385.0601869,-0.15224038064479828,0.5612726211547852,-0.13272380828857422,-4.698286533355713,-1.1256449222564697,-0.9449752569198608
1738564385.080542,-0.25572651624679565,0.5454869866371155,-0.23088544607162476,-4.549952030181885,-1.0438133478164673,-1.172608733177185
1738564385.101585,-0.2916262149810791,0.5331655740737915,-0.1633228063583374,-4.713062763214111,-1.1932936906814575,-1.412376880645752
1738564385.1205192,-0.21743875741958618,0.559327244758606,-0.06840723752975464,-5.240501880645752,-0.9796804189682007,-1.3827433586120605
1738564385.140831,-0.15689101815223694,0.4747655987739563,-0.21848207712173462,-5.603715419769287,-0.48886990547180176,-1.3210662603378296
1738564385.1615791,-0.15842784941196442,0.37484654784202576,-0.42980629205703735,-5.578275680541992,-0.15353156626224518,-1.3420002460479736
1738564385.180793,-0.036239102482795715,0.2088625729084015,-0.5834008455276489,-5.3454132080078125,-0.4843055307865143,-1.1191352605819702
1738564385.201186,0.14319249987602234,0.08371102809906006,-0.7213558554649353,-4.619798183441162,-0.999850332736969,-0.5068116784095764
1738564385.220216,0.14941078424453735,0.11915434896945953,-0.8417839407920837,-3.38641357421875,-1.1808643341064453,0.20043127238750458
1738564385.2402391,-0.05056900903582573,0.18337103724479675,-0.782855749130249,-2.1803107261657715,-0.9214821457862854,0.3965299725532532
1738564385.260746,-0.10329259932041168,0.2155204564332962,-0.40649843215942383,-1.8576509952545166,-0.6549035310745239,0.2519310414791107
1738564385.280083,-0.10274583101272583,0.2640749514102936,-0.08919119834899902,-2.2733380794525146,-0.2424422949552536,0.010166456922888756
1738564385.30053,-0.10329162329435349,0.31461572647094727,0.012852489948272705,-3.1663761138916016,0.07365991175174713,-0.3180791437625885
1738564385.319866,-0.043150052428245544,0.2559972405433655,-0.22108644247055054,-3.3403408527374268,0.07157707214355469,-0.5478929281234741
1738564385.339888,0.0021244119852781296,0.14818917214870453,-0.590621829032898,-2.3719780445098877,-0.22512777149677277,-0.684543788433075
1738564385.360013,0.10654231905937195,0.06215192377567291,-0.6306251287460327,-1.4718748331069946,-0.5194209814071655,-0.6753957867622375
1738564385.3800879,0.12599878013134003,0.10634568333625793,-0.47272104024887085,-1.1842844486236572,-0.4672413766384125,-0.6228486895561218
1738564385.40027,0.18407851457595825,0.0864637941122055,-0.396980345249176,-1.1003540754318237,-0.28730708360671997,-0.5002614855766296
1738564385.41977,0.18342003226280212,0.0740613341331482,-0.3649190068244934,-0.9779506325721741,-0.16759715974330902,-0.43759843707084656
1738564385.439677,0.1828034520149231,0.07183116674423218,-0.37862932682037354,-0.7121792435646057,-0.1397572159767151,-0.34163811802864075
1738564385.460236,0.19006852805614471,0.03991556167602539,-0.39540964365005493,-0.3399263024330139,-0.24518084526062012,-0.16465988755226135
1738564385.479607,0.19386520981788635,0.025470584630966187,-0.36753106117248535,0.0188689474016428,-0.4069032073020935,0.07911659777164459
1738564385.500411,0.18257936835289001,-0.0022644996643066406,-0.3172836899757385,0.3084733486175537,-0.5880793929100037,0.30317503213882446
1738564385.5196419,0.16008980572223663,-0.017794400453567505,-0.2650325298309326,0.5549942851066589,-0.7615679502487183,0.4565699100494385
1738564385.539835,0.09505892544984818,-0.004269272089004517,-0.2314813733100891,0.7962895631790161,-0.7664157748222351,0.48783811926841736
1738564385.560175,0.03072872757911682,0.00341072678565979,-0.17876297235488892,0.9366790056228638,-0.6221738457679749,0.417266309261322
1738564385.5799232,0.010287255048751831,0.011289075016975403,-0.11401546001434326,0.9505503177642822,-0.4409714341163635,0.37265580892562866
1738564385.6002588,0.029564231634140015,0.02508459985256195,-0.11490190029144287,1.0801067352294922,-0.24406863749027252,0.4238773286342621
1738564385.620621,0.041965633630752563,0.04342128336429596,-0.08460509777069092,1.2213879823684692,-0.10373356193304062,0.5309576392173767
1738564385.639999,0.05038629472255707,0.06711570918560028,-0.003780841827392578,1.2111880779266357,-0.07249048352241516,0.6408761739730835
1738564385.661711,0.055028706789016724,0.06318491697311401,0.0889052152633667,1.0153383016586304,-0.15959303081035614,0.7196060419082642
