timestamp,acc_x,acc_y,acc_z,rot_x,rot_y,rot_z
1738564377.228228,-0.0007126778364181519,-0.008838370442390442,0.054583847522735596,-0.542377769947052,-0.12108457833528519,-0.15268023312091827
1738564377.229403,-0.03116084635257721,-0.03363578021526337,-0.04912400245666504,-0.33833950757980347,0.017059780657291412,-0.19510413706302643
1738564377.239255,-0.0037330538034439087,-0.005125135183334351,-0.10552340745925903,-0.07569051533937454,0.063051238656044,-0.19951754808425903
1738564377.259057,0.03227236866950989,-0.004069462418556213,-0.048210203647613525,-0.008050012402236462,0.1004185900092125,-0.10627306997776031
1738564377.2788792,0.03057853877544403,0.011945486068725586,-0.01666998863220215,-0.008157812058925629,0.08634351193904877,-0.04666674882173538
1738564377.299159,0.018875598907470703,0.003779575228691101,0.006068170070648193,-0.06666607409715652,0.062000028789043427,-0.04608907923102379
1738564377.319516,0.011976122856140137,-0.0050493329763412476,0.00774770975112915,-0.10301845520734787,0.012720026075839996,-0.08649063855409622
1738564377.3401709,-0.004636257886886597,-0.007718667387962341,-0.021421849727630615,-0.03387797623872757,-0.0036674675066024065,-0.14852353930473328
1738564377.359116,0.0034158527851104736,-0.0018236935138702393,-0.038273751735687256,0.049076054245233536,0.004094512201845646,-0.1615673005580902
1738564377.3802109,0.02520228922367096,-0.002562105655670166,-0.023868083953857422,0.03623753786087036,0.013510920107364655,-0.1411616951227188
1738564377.3992748,0.021877601742744446,-0.003231823444366455,-0.015749752521514893,-0.016326526179909706,0.04264397174119949,-0.12875282764434814
1738564377.4192572,0.004997611045837402,0.007944419980049133,-0.058996737003326416,-0.015477383509278297,0.0044521731324493885,-0.1256871223449707
1738564377.438953,-0.012887075543403625,-0.006417185068130493,-0.13293075561523438,0.05702171474695206,-0.17029473185539246,-0.14770735800266266
1738564377.4592109,-0.03102131187915802,-0.023386970162391663,-0.20771539211273193,0.17713956534862518,-0.3580933213233948,-0.18311452865600586
1738564377.480641,-0.06436307728290558,-0.040244534611701965,-0.2946784496307373,0.2801286280155182,-0.5031760334968567,-0.2588416635990143
1738564377.499278,-0.11185029149055481,-0.039385855197906494,-0.4080893397331238,0.431784451007843,-0.5441048741340637,-0.374515175819397
1738564377.5193272,-0.16103291511535645,-0.04634740948677063,-0.5992642045021057,0.8753437399864197,-0.5344071388244629,-0.5679916143417358
1738564377.540625,-0.16866296529769897,-0.031882062554359436,-0.7101503610610962,1.341361165046692,-0.4191369116306305,-0.7960097193717957
1738564377.559746,-0.1718810498714447,0.008708059787750244,-0.7403373718261719,1.6798210144042969,-0.1110314130783081,-1.0010873079299927
1738564377.5812721,-0.15806080400943756,0.04430466890335083,-0.7805103063583374,2.0932164192199707,0.3328893482685089,-1.1396368741989136
1738564377.599303,-0.16705696284770966,0.09315800666809082,-0.7652391791343689,2.474480628967285,0.8739123344421387,-1.2694820165634155
1738564377.6187382,-0.20988871157169342,0.13468477129936218,-0.7266051173210144,2.9449687004089355,1.4706727266311646,-1.5121392011642456
1738564377.639925,-0.19478164613246918,0.2147400975227356,-0.5881012678146362,3.229300022125244,1.7303729057312012,-1.6608608961105347
1738564377.6590672,-0.09853731840848923,0.28330469131469727,-0.46348637342453003,3.3606057167053223,1.5506545305252075,-1.4502109289169312
1738564377.680973,0.021540015935897827,0.3092010021209717,-0.42470818758010864,3.507368564605713,1.0607960224151611,-0.9776456952095032
1738564377.699002,0.06067124754190445,0.29123449325561523,-0.4778193235397339,3.7371156215667725,0.6176531910896301,-0.5377843976020813
1738564377.719029,-0.0450277179479599,0.3434973955154419,-0.5516665577888489,3.9985742568969727,0.5364391207695007,-0.3556068539619446
1738564377.7390199,-0.13681718707084656,0.40896499156951904,-0.5388785600662231,4.156849384307861,0.9196006655693054,-0.31171196699142456
1738564377.758652,-0.16984923183918,0.47582346200942993,-0.41634607315063477,4.122011661529541,1.3434206247329712,-0.35940468311309814
1738564377.77862,-0.18889406323432922,0.5718889236450195,-0.2947395443916321,4.064547061920166,1.531456470489502,-0.38192665576934814
1738564377.798991,-0.19391843676567078,0.6318877339363098,-0.2711308002471924,4.295308589935303,1.4276864528656006,-0.4196612238883972
1738564377.819106,-0.19607019424438477,0.7002148628234863,-0.22569790482521057,4.5850958824157715,1.0506402254104614,-0.48865482211112976
1738564377.841401,-0.16266584396362305,0.7623999118804932,-0.17807966470718384,4.808628559112549,0.5127201080322266,-0.5561301112174988
1738564377.858639,-0.06816965341567993,0.786466121673584,-0.08863168954849243,4.887519836425781,0.28805112838745117,-0.48657283186912537
1738564377.87865,-0.01973215490579605,0.7784236669540405,-0.01804029941558838,4.780316352844238,0.345073938369751,-0.4031759798526764
1738564377.8984199,0.005912221968173981,0.7371471524238586,-0.018518030643463135,4.716181755065918,0.6141303777694702,-0.29925990104675293
1738564377.918745,0.04930466413497925,0.684113085269928,-0.0313495397567749,4.672002792358398,0.8538038730621338,-0.10330244898796082
1738564377.9410958,0.06264900416135788,0.6179065108299255,-0.04944181442260742,4.730996131896973,1.206072211265564,0.08932849019765854
1738564377.958582,0.0808735266327858,0.6075625419616699,0.033545464277267456,4.509593963623047,1.5498820543289185,0.3519398272037506
1738564377.978596,0.06750664114952087,0.5598182678222656,0.09803339838981628,4.209527969360352,2.009368419647217,0.6148468852043152
1738564377.9985352,0.019390929490327835,0.5072415471076965,0.20026788115501404,3.7527663707733154,2.2499947547912598,0.754389762878418
1738564378.018612,-0.09010165929794312,0.46237117052078247,0.34881287813186646,3.1635544300079346,2.3607358932495117,0.6425850987434387
1738564378.041364,-0.21180817484855652,0.402862548828125,0.5812582969665527,2.368346929550171,2.4446191787719727,0.26207563281059265
1738564378.058439,-0.31565016508102417,0.3706231713294983,0.7967674732208252,1.483906865119934,2.4948995113372803,-0.3547517955303192
1738564378.078813,-0.42278799414634705,0.4341513514518738,0.8765978217124939,0.7487229704856873,2.6890668869018555,-0.9982414245605469
1738564378.0985441,-0.40973496437072754,0.47741878032684326,0.9722428321838379,-0.011549231596291065,2.783938407897949,-1.3459153175354004
1738564378.118455,-0.3189452886581421,0.48187416791915894,0.9785462617874146,-0.607869565486908,2.169914484024048,-1.3046214580535889
1738564378.141138,-0.21617868542671204,0.43085992336273193,0.8097967505455017,-0.7931222915649414,0.6178629994392395,-0.937454879283905
1738564378.1583881,-0.11228492110967636,0.37714433670043945,0.6779126524925232,-0.8715044856071472,-1.090588092803955,-0.37945523858070374
1738564378.1779861,-0.07260406762361526,0.352996289730072,0.5701695680618286,-1.0445804595947266,-2.11303973197937,0.05661587044596672
1738564378.1979752,-0.08397355675697327,0.35653507709503174,0.4961525797843933,-1.3647624254226685,-2.1539759635925293,0.2609293460845947
1738564378.2181048,-0.10762833058834076,0.3702149987220764,0.43520230054855347,-1.740689992904663,-1.624092936515808,0.26268652081489563
1738564378.240285,-0.1114911288022995,0.3816034197807312,0.4243825674057007,-2.1880416870117188,-0.9236539602279663,0.1399320363998413
1738564378.2582278,-0.12078705430030823,0.39227747917175293,0.371834933757782,-2.515620708465576,-0.5332893133163452,-0.07785407453775406
1738564378.278215,-0.10822941362857819,0.3796612620353699,0.2919621467590332,-2.625235080718994,-0.5760577917098999,-0.27322277426719666
1738564378.2986841,-0.10112160444259644,0.3985635042190552,0.27648958563804626,-2.724339246749878,-0.7300244569778442,-0.4062868058681488
1738564378.318259,-0.07973915338516235,0.4278818964958191,0.31731918454170227,-3.0094447135925293,-0.8207327723503113,-0.4583275318145752
1738564378.3401918,-0.06641185283660889,0.474862277507782,0.36149346828460693,-3.4936020374298096,-0.8469255566596985,-0.4825206995010376
1738564378.3581781,-0.04044181481003761,0.5101274251937866,0.29078853130340576,-3.8324368000030518,-0.8530469536781311,-0.436318576335907
1738564378.377773,-0.0371047779917717,0.5620182156562805,0.1820666790008545,-3.9382505416870117,-0.9609129428863525,-0.34828534722328186
1738564378.398103,-0.07912208139896393,0.5694525241851807,0.10764092206954956,-3.987278461456299,-1.1203500032424927,-0.3615473806858063
1738564378.418046,-0.10958579182624817,0.5476797223091125,0.11657708883285522,-4.193451881408691,-1.240561842918396,-0.4507731795310974
1738564378.438108,-0.09676478058099747,0.5699337720870972,0.12019124627113342,-4.404504776000977,-1.319817304611206,-0.48938995599746704
1738564378.4581661,-0.0840160921216011,0.6297285556793213,0.0625896155834198,-4.399948596954346,-1.540979027748108,-0.4635203778743744
1738564378.477937,-0.21562471985816956,0.6560429334640503,-0.3061087429523468,-3.5472192764282227,-2.486721992492676,-0.6367143392562866
1738564378.497913,-0.2823416292667389,0.5496999025344849,-0.6708676815032959,-2.2891414165496826,-3.6913375854492188,-0.8651109933853149
1738564378.518035,-0.1169314906001091,0.4480980634689331,-0.5227068066596985,-1.938255786895752,-3.653066873550415,-0.6652013659477234
1738564378.541438,-0.027964897453784943,0.4518779516220093,-0.20618808269500732,-2.534961700439453,-2.0619049072265625,-0.3147681653499603
1738564378.558144,-0.03128373622894287,0.47510915994644165,-0.03666108846664429,-3.3700242042541504,-0.26909223198890686,-0.2127998322248459
1738564378.577831,-0.058190181851387024,0.462493360042572,0.16952335834503174,-4.59271764755249,0.4995515048503876,-0.3508596122264862
1738564378.598644,-0.11283180117607117,0.48753875494003296,0.05491483211517334,-5.122611045837402,-0.4413628578186035,-0.42699795961380005
1738564378.617929,-0.07235869020223618,0.36765462160110474,-0.36952197551727295,-4.425387382507324,-2.3256218433380127,0.023351900279521942
1738564378.637758,0.1420688033103943,0.2081252932548523,-0.35207462310791016,-4.380945205688477,-3.99192214012146,1.1600359678268433
1738564378.658623,0.271051824092865,0.02829691767692566,-0.22813504934310913,-5.291348934173584,-4.660276889801025,2.50697922706604
1738564378.6781502,-0.01360061764717102,0.22150227427482605,-0.5668991208076477,-5.458733558654785,-4.4583845138549805,3.2604598999023438
1738564378.6982021,-0.61524498462677,0.3098849058151245,-1.2445216178894043,-3.526629686355591,-2.384061574935913,2.6135220527648926
1738564378.718062,-0.5362476110458374,0.08383803069591522,-1.134308934211731,-2.0446858406066895,-0.13499599695205688,1.7175906896591187
1738564378.737771,-0.25909423828125,0.06564231216907501,-0.6680163741111755,-1.7673503160476685,1.209847331047058,1.2507567405700684
1738564378.758136,-0.33541831374168396,0.07329064607620239,-0.4512917399406433,-1.9864813089370728,1.9248875379562378,0.806738555431366
1738564378.7777228,-0.3724732995033264,-0.0398285835981369,-0.49594300985336304,-2.0113861560821533,1.3143454790115356,0.3067823052406311
1738564378.79968,-0.3120313584804535,-0.16838903725147247,-0.6677625179290771,-1.3713281154632568,0.05260000005364418,-0.12713652849197388
1738564378.8180032,-0.21794790029525757,-0.1549968123435974,-0.6903090476989746,-0.6689603328704834,-0.8178295493125916,-0.39330223202705383
1738564378.8412352,-0.12402987480163574,-0.11700299382209778,-0.561603844165802,-0.3015354573726654,-0.6849148869514465,-0.6304339170455933
1738564378.858588,-0.02284419536590576,-0.06238092854619026,-0.39380139112472534,-0.30643415451049805,0.15608671307563782,-0.8073235750198364
1738564378.8777828,0.06270453333854675,-0.009457632899284363,-0.27415525913238525,-0.39114680886268616,1.0464403629302979,-0.8306717872619629
1738564378.898086,0.11191821098327637,0.029995322227478027,-0.18538403511047363,-0.40389350056648254,1.4365978240966797,-0.7214013934135437
1738564378.917346,0.14293169975280762,0.03570764884352684,-0.20934391021728516,-0.04038287326693535,1.4338592290878296,-0.48251888155937195
1738564378.937417,0.1471785604953766,0.06035357713699341,-0.17942410707473755,0.41836628317832947,1.0362125635147095,-0.14967140555381775
1738564378.9580011,0.1481521874666214,0.0733005702495575,-0.010045409202575684,0.5057064294815063,0.355685293674469,0.19883525371551514
