timestamp,acc_x,acc_y,acc_z,rot_x,rot_y,rot_z
1738564422.9202309,-0.007001325488090515,-0.04314921796321869,0.11885052919387817,-0.6768802404403687,-0.12553231418132782,-0.03951438516378403
1738564422.921369,-0.019286707043647766,0.04248373210430145,-0.06411880254745483,-0.4252920150756836,-0.0876605436205864,-0.09885239601135254
1738564422.9378018,0.02755466103553772,-0.015164703130722046,-0.042402684688568115,-0.2956443727016449,-0.06451168656349182,-0.011817515827715397
1738564422.957309,0.019651442766189575,0.004194527864456177,-0.03294825553894043,-0.2269470989704132,-0.12137653678655624,0.04242775961756706
1738564422.977792,0.012449637055397034,-0.004016615450382233,-0.02854180335998535,-0.19742177426815033,-0.1044829785823822,0.06283281743526459
1738564422.997051,-0.005877450108528137,-0.003080300986766815,-0.04200410842895508,-0.15002532303333282,-0.0364266075193882,0.028045933693647385
1738564423.0170588,-0.002312391996383667,-0.01378699392080307,-0.032294631004333496,-0.15886646509170532,-0.010296466760337353,0.00786604918539524
1738564423.038156,-0.0046038031578063965,-0.0178050696849823,-0.027377188205718994,-0.18170781433582306,-0.06687699258327484,-0.01685274951159954
1738564423.05732,-0.01540076732635498,-0.014370307326316833,-0.06529325246810913,-0.08744707703590393,-0.08469570428133011,-0.047873880714178085
1738564423.081925,-0.017175450921058655,-0.006926104426383972,-0.07708615064620972,-0.0016412395052611828,-0.07254910469055176,-0.08155637979507446
1738564423.097831,-0.021681785583496094,-0.001935616135597229,-0.07983458042144775,0.011357988230884075,-0.06435995548963547,-0.12341267615556717
1738564423.1177158,-0.02384316921234131,-0.01086222380399704,-0.1339694857597351,0.07733425498008728,-0.1111617311835289,-0.1781783252954483
1738564423.1380038,-0.032044440507888794,-0.007653594017028809,-0.19819998741149902,0.19800348579883575,-0.0962073877453804,-0.20016780495643616
1738564423.157158,-0.03775225579738617,-0.013378433883190155,-0.2577791213989258,0.3377358317375183,-0.07338862121105194,-0.221622496843338
1738564423.180743,-0.07111141085624695,-0.011259712278842926,-0.31262457370758057,0.4723624587059021,-0.08862972259521484,-0.2868878245353699
1738564423.197881,-0.09677398204803467,-0.012649774551391602,-0.38484835624694824,0.6581457853317261,-0.11222151666879654,-0.4233236014842987
1738564423.2172298,-0.11364740133285522,0.017607197165489197,-0.4424930214881897,0.863164484500885,-0.12126663327217102,-0.5896145105361938
1738564423.237469,-0.09644429385662079,0.03741160035133362,-0.5366909503936768,1.1851603984832764,-0.05815620720386505,-0.7139319777488708
1738564423.2570372,-0.06849078834056854,0.06097257137298584,-0.5544251203536987,1.475272297859192,0.2732386589050293,-0.8033307790756226
1738564423.276977,-0.06401476263999939,0.10354490578174591,-0.5369725227355957,1.7590287923812866,0.8501461148262024,-0.8613281846046448
1738564423.29746,-0.03318093717098236,0.14246168732643127,-0.44784361124038696,1.9307043552398682,1.2944395542144775,-0.8373119831085205
1738564423.317276,-0.018197841942310333,0.14915406703948975,-0.3649885654449463,2.103199005126953,1.2863163948059082,-0.7661491632461548
1738564423.337687,-0.007378026843070984,0.15565916895866394,-0.3150467872619629,2.4155325889587402,1.0521622896194458,-0.6536164283752441
1738564423.3572369,0.043760307133197784,0.11307111382484436,-0.18495464324951172,2.5871224403381348,0.976167619228363,-0.5294671058654785
1738564423.377026,0.06883835792541504,0.2187477946281433,-0.05484563112258911,2.4238736629486084,0.7628797888755798,-0.12524919211864471
1738564423.398076,0.07268989831209183,0.19149404764175415,-0.15784835815429688,2.658341646194458,0.4761081337928772,0.2709757089614868
1738564423.4169059,0.002641480416059494,0.2065647840499878,-0.18169140815734863,2.828376531600952,0.2362438142299652,0.4817054569721222
1738564423.4368238,-0.07487846910953522,0.21761447191238403,-0.14009493589401245,2.7352025508880615,0.2587513029575348,0.4653264582157135
1738564423.456874,-0.1182020753622055,0.18285518884658813,-0.14178496599197388,2.6399691104888916,0.4443037807941437,0.30741366744041443
1738564423.4768019,-0.11497598886489868,0.17242419719696045,-0.12572616338729858,2.4696309566497803,0.6570931673049927,0.16595111787319183
1738564423.497766,-0.10887648910284042,0.16992664337158203,-0.1354764699935913,2.335930347442627,0.7057351469993591,0.0474393405020237
1738564423.5168219,-0.09523685276508331,0.1861569881439209,-0.21914780139923096,2.4490466117858887,0.5701824426651001,-0.04910336807370186
1738564423.538169,-0.08665763586759567,0.21678835153579712,-0.26623833179473877,2.709831953048706,0.5454246401786804,-0.12596645951271057
1738564423.556793,-0.05419256538152695,0.2629849314689636,-0.21446460485458374,2.885627508163452,0.6038508415222168,-0.12326890230178833
1738564423.576867,-0.02788470685482025,0.30499267578125,-0.15043234825134277,2.9722278118133545,0.6525191068649292,-0.059713609516620636
1738564423.5969892,-0.03512999415397644,0.3350149989128113,-0.12598061561584473,3.0873401165008545,0.7966321706771851,-0.00959615409374237
1738564423.616638,-0.01605631411075592,0.3521100878715515,-0.07132405042648315,3.12562894821167,0.8222886919975281,0.0403154157102108
1738564423.6389399,-0.014194458723068237,0.3615010976791382,-0.0074776411056518555,3.089315891265869,0.8196201324462891,0.09843159466981888
1738564423.6565862,-0.020248550921678543,0.37254494428634644,-0.014294594526290894,3.163546562194824,0.7680999636650085,0.1716824471950531
1738564423.676611,-0.001006249338388443,0.37332582473754883,0.05287829041481018,3.1485707759857178,0.740041196346283,0.2676035463809967
1738564423.698003,-0.016850873827934265,0.3722265362739563,0.12058138847351074,2.984955310821533,0.6908236145973206,0.30093976855278015
1738564423.7164068,-0.022296246141195297,0.33486562967300415,0.13173143565654755,2.8077096939086914,0.7092005014419556,0.294371098279953
1738564423.738286,-0.02647346630692482,0.30072373151779175,0.14384783804416656,2.6131556034088135,0.8689066767692566,0.2750498354434967
1738564423.7565022,-0.023853527382016182,0.27361422777175903,0.12737184762954712,2.4221177101135254,1.0369956493377686,0.2904154062271118
1738564423.7768059,-0.020328164100646973,0.2262057662010193,0.042061567306518555,2.4411118030548096,1.1950093507766724,0.3117297887802124
1738564423.797532,-0.029177308082580566,0.21477746963500977,-0.005668874830007553,2.463501453399658,1.3356590270996094,0.34658193588256836
1738564423.816447,-0.0014779865741729736,0.20055454969406128,-0.004661083221435547,2.4676766395568848,1.3973793983459473,0.470517635345459
1738564423.8379679,-0.007055342197418213,0.19040334224700928,-0.10420608520507812,2.7732300758361816,1.3594011068344116,0.571422815322876
1738564423.856328,-0.0403924323618412,0.2062472105026245,-0.11004731059074402,3.0427699089050293,1.2579914331436157,0.583760142326355
1738564423.8761492,-0.04226355999708176,0.18779438734054565,-0.032804399728775024,3.109104633331299,1.2183160781860352,0.5134134888648987
1738564423.898037,-0.05058010667562485,0.2016546130180359,0.07042750716209412,2.9530651569366455,1.3628034591674805,0.44405075907707214
1738564423.9163299,-0.04217904061079025,0.20884108543395996,0.1769321858882904,2.616257429122925,1.5885248184204102,0.43627920746803284
1738564423.936266,-0.04774107038974762,0.17917108535766602,0.2807319760322571,2.1436607837677,1.7511422634124756,0.39887160062789917
1738564423.956277,-0.09320070594549179,0.1639314889907837,0.3962845504283905,1.5785109996795654,1.8151111602783203,0.28360989689826965
1738564423.9765248,-0.13459554314613342,0.168623149394989,0.4192203879356384,1.1292566061019897,1.709714651107788,0.14131587743759155
1738564423.9971108,-0.15398786962032318,0.17183011770248413,0.3811434209346771,0.884865939617157,1.424719214439392,0.02782144583761692
1738564424.0162148,-0.1724638193845749,0.18054568767547607,0.3816865086555481,0.6815470457077026,1.1380527019500732,-0.05489750951528549
1738564424.036182,-0.1789303719997406,0.17841464281082153,0.4353139400482178,0.3617759048938751,0.8190904855728149,-0.11366439610719681
1738564424.0560498,-0.15605174005031586,0.171608567237854,0.4454030692577362,0.04419052228331566,0.3780648708343506,-0.10647676885128021
1738564424.075862,-0.12689705193042755,0.16140568256378174,0.38403648138046265,-0.15096595883369446,-0.18994393944740295,-0.023737376555800438
1738564424.096712,-0.08740316331386566,0.1425592303276062,0.3081316649913788,-0.264634907245636,-0.6585634350776672,0.08669953048229218
1738564424.115655,-0.08070604503154755,0.12457263469696045,0.2907455563545227,-0.43364861607551575,-0.8663952946662903,0.09983454644680023
1738564424.13553,-0.08085013926029205,0.11074745655059814,0.3055933117866516,-0.7030892968177795,-0.8753785490989685,0.02710319124162197
1738564424.155544,-0.08921368420124054,0.11154830455780029,0.32368573546409607,-1.024466872215271,-0.7770577669143677,-0.13613271713256836
1738564424.175626,-0.07415449619293213,0.1478554606437683,0.29130780696868896,-1.2473456859588623,-0.4941463768482208,-0.2639849781990051
1738564424.195528,-0.07354111969470978,0.19851356744766235,0.2537614703178406,-1.368539571762085,-0.23458483815193176,-0.36112913489341736
1738564424.2158499,-0.061812713742256165,0.21836405992507935,0.25887495279312134,-1.4683719873428345,-0.07374712079763412,-0.3957997262477875
1738564424.2364721,-0.04540069401264191,0.2258574366569519,0.3156792223453522,-1.6989926099777222,-0.07174023240804672,-0.386099636554718
1738564424.255538,-0.03535225987434387,0.213220477104187,0.3545515537261963,-1.9984104633331299,-0.20581288635730743,-0.3620149791240692
1738564424.275429,-0.04686882346868515,0.2079160213470459,0.3210509419441223,-2.198455572128296,-0.4862256944179535,-0.3753524124622345
1738564424.295474,-0.06576934456825256,0.22712582349777222,0.2998485565185547,-2.3926565647125244,-0.7116440534591675,-0.4243637025356293
1738564424.315449,-0.07059546560049057,0.24917256832122803,0.24933215975761414,-2.5420660972595215,-0.7918031215667725,-0.4860280454158783
1738564424.336108,-0.048314787447452545,0.2727910280227661,0.24110521376132965,-2.8008906841278076,-0.688508152961731,-0.49496695399284363
1738564424.355733,-0.02356574684381485,0.2942996025085449,0.210912823677063,-3.0356650352478027,-0.5659977793693542,-0.4583137631416321
1738564424.3760219,-0.029698513448238373,0.2858951687812805,0.06020509824156761,-2.8917946815490723,-0.7036958336830139,-0.43212950229644775
1738564424.398442,-0.05384125933051109,0.2580641508102417,-0.008012054488062859,-2.6466736793518066,-0.9337078332901001,-0.45391175150871277
1738564424.415602,-0.0671129822731018,0.2439855933189392,0.0518190935254097,-2.662562608718872,-0.9395754933357239,-0.4975910484790802
1738564424.4357681,-0.042966876178979874,0.2776334285736084,0.18792466819286346,-3.09960675239563,-0.5666653513908386,-0.5128988027572632
1738564424.455694,-0.046215832233428955,0.3057621121406555,0.13494731485843658,-3.3536908626556396,-0.3428136706352234,-0.5594362020492554
1738564424.475733,-0.0841086208820343,0.28517770767211914,-0.05858150124549866,-3.1026151180267334,-0.5168609023094177,-0.687076985836029
1738564424.4985409,-0.1151241660118103,0.23718857765197754,-0.10813668370246887,-2.8933751583099365,-0.8010340929031372,-0.8909708857536316
1738564424.5159202,-0.09893214702606201,0.2241830825805664,-0.08245033025741577,-2.857666254043579,-0.900506317615509,-1.0182772874832153
1738564424.535536,-0.0432019978761673,0.2574663758277893,-0.042876601219177246,-2.953871726989746,-0.6377131938934326,-0.9766820669174194
1738564424.555537,0.01052294671535492,0.2816764712333679,-0.03914695978164673,-2.9708220958709717,-0.2610825002193451,-0.8123188614845276
1738564424.575451,-0.03770230710506439,0.2728312015533447,-0.03489577770233154,-3.090888023376465,-0.22968365252017975,-0.8236057758331299
1738564424.598425,-0.08716216683387756,0.22772938013076782,-0.15289169549942017,-2.9112682342529297,-0.6403104066848755,-0.9528358578681946
1738564424.6154819,-0.022956587374210358,0.1775990128517151,-0.24260669946670532,-2.408067226409912,-1.1168490648269653,-0.8817371129989624
1738564424.6354241,0.05086205154657364,0.20320457220077515,-0.08175575733184814,-2.3846468925476074,-0.9872789978981018,-0.6280977725982666
1738564424.6552172,0.06036962568759918,0.2476385235786438,0.11032480001449585,-2.8355050086975098,-0.40666449069976807,-0.3889874517917633
1738564424.674995,-0.019112810492515564,0.30228227376937866,0.07727181911468506,-3.1398465633392334,-0.23156657814979553,-0.37377747893333435
1738564424.6949449,-0.14379435777664185,0.26609230041503906,-0.13740593194961548,-2.8328051567077637,-0.5858393907546997,-0.6333584785461426
1738564424.715382,-0.15170562267303467,0.2283037304878235,-0.16835331916809082,-2.544365644454956,-0.794483482837677,-0.8409367799758911
1738564424.735334,-0.005795508623123169,0.21695125102996826,-0.08427703380584717,-2.5443310737609863,-0.736312985420227,-0.6943883895874023
1738564424.7549539,0.10691294819116592,0.21875259280204773,0.010058045387268066,-2.8234317302703857,-0.6810172200202942,-0.2832261025905609
1738564424.77511,0.036148495972156525,0.21432572603225708,-0.1226838231086731,-2.799825668334961,-0.9455106258392334,-0.039392292499542236
1738564424.795052,-0.07957476377487183,0.10260963439941406,-0.3610684275627136,-2.3368451595306396,-1.3955271244049072,-0.0488138422369957
1738564424.815044,-0.0009097196161746979,0.009107649326324463,-0.36249130964279175,-2.188375473022461,-1.8657695055007935,0.1799401491880417
1738564424.834838,0.10075008869171143,-0.07036444544792175,-0.3835042119026184,-2.016664981842041,-2.2296156883239746,0.5587664246559143
1738564424.854895,0.05439835786819458,-0.028527021408081055,-0.3786775469779968,-1.8539209365844727,-2.2233545780181885,0.7946932315826416
1738564424.8748221,-0.11029890179634094,-0.02333158254623413,-0.44089436531066895,-1.4959872961044312,-1.7084945440292358,0.4784693717956543
1738564424.894697,-0.17524228990077972,-0.012523233890533447,-0.37936967611312866,-1.4875872135162354,-0.8240140080451965,-0.05603022500872612
1738564424.914826,-0.02477492392063141,0.010936051607131958,-0.3110855221748352,-1.6054599285125732,0.02549438737332821,-0.1793339103460312
1738564424.935542,0.09305810928344727,0.05865664780139923,-0.292421817779541,-1.584253191947937,0.36447665095329285,0.0957704409956932
1738564424.9553251,0.07785013318061829,0.05382028967142105,-0.38032376766204834,-1.100459098815918,0.14687031507492065,0.3280458450317383
1738564424.975045,-0.024065524339675903,-0.0028543248772621155,-0.39519011974334717,-0.5418902039527893,-0.16978608071804047,0.21794380247592926
1738564424.995136,-0.04096859693527222,-0.002614818513393402,-0.23544061183929443,-0.4714919924736023,-0.18917912244796753,0.050733089447021484
1738564425.0149379,-0.02173873782157898,0.026856660842895508,-0.12409079074859619,-0.7207663059234619,0.060416895896196365,-0.06280461698770523
1738564425.035057,0.019601061940193176,0.05079472064971924,-0.14585942029953003,-0.8794236779212952,0.2649295926094055,-0.040916915982961655
1738564425.056593,0.05345405638217926,0.0479428805410862,-0.20886629819869995,-0.7569522261619568,0.23398996889591217,0.08369135111570358
1738564425.074998,0.02602367103099823,0.02525840699672699,-0.2779027819633484,-0.336299866437912,-0.06387179344892502,0.14788781106472015
1738564425.098388,0.0010936260223388672,-0.015685193240642548,-0.3371480703353882,0.2493593990802765,-0.23998452723026276,0.09621158242225647
1738564425.115582,0.015111595392227173,-0.009333398193120956,-0.23749148845672607,0.5128309726715088,-0.19422577321529388,0.08232301473617554
1738564425.134908,0.026058197021484375,0.0024495013058185577,-0.12943583726882935,0.5106326341629028,-0.05629311129450798,0.1199527457356453
1738564425.155199,0.01954445242881775,0.013773083686828613,0.013700425624847412,0.1905936300754547,0.0043548461981117725,0.14411795139312744
