timestamp,acc_x,acc_y,acc_z,rot_x,rot_y,rot_z
1738564386.893656,0.011604994535446167,-0.0374683253467083,0.13230782747268677,-0.5638337135314941,-0.13872042298316956,-0.2070026844739914
1738564386.894075,-0.02368392050266266,0.04209542274475098,-0.04224574565887451,-0.4097423255443573,-0.05355953797698021,-0.22758767008781433
1738564386.908499,0.012852773070335388,0.0028633810579776764,-0.10493147373199463,-0.0713852047920227,0.08673036098480225,-0.14730115234851837
1738564386.928045,0.02911795675754547,0.009144436568021774,-0.07645636796951294,0.13579609990119934,0.11644867062568665,-0.05812723934650421
1738564386.9481,0.025262415409088135,0.01742938533425331,0.007965266704559326,0.0874011367559433,0.08634776622056961,0.011155396699905396
1738564386.968384,0.01083451509475708,0.0016133524477481842,0.05097532272338867,-0.0838044285774231,0.03349147364497185,-0.00640868442133069
1738564386.988443,0.00042316317558288574,0.0001404695212841034,0.019835293292999268,-0.1201789379119873,0.022810060530900955,-0.034073568880558014
1738564387.0085359,-0.02315419912338257,-0.007099207490682602,-0.0398179292678833,0.020084168761968613,-0.025831250473856926,-0.10283289104700089
1738564387.029786,-0.007521778345108032,-0.014042483642697334,-0.04341310262680054,0.11283224821090698,-0.020112155005335808,-0.119497150182724
1738564387.04842,0.0035316646099090576,-0.006510298699140549,-0.007959365844726562,0.05613705888390541,0.037224605679512024,-0.11848711222410202
1738564387.069946,0.02315583825111389,-0.017154589295387268,0.013665974140167236,-0.0657477006316185,0.09001737833023071,-0.12167023867368698
1738564387.088588,0.02069041132926941,-0.004820602014660835,-0.005401194095611572,-0.1374828815460205,0.10817109048366547,-0.13233889639377594
1738564387.1082869,0.007928222417831421,-0.003150591626763344,-0.06682640314102173,-0.06271441280841827,0.10091772675514221,-0.14252029359340668
1738564387.129898,0.004622325301170349,-0.018274515867233276,-0.11447298526763916,0.06892483681440353,-0.0008378992788493633,-0.13814298808574677
1738564387.148282,0.0049483925104141235,-0.015295172110199928,-0.13475215435028076,0.11685693264007568,-0.1324894279241562,-0.10203231871128082
1738564387.16956,-0.002653464674949646,-0.021979179233312607,-0.17585545778274536,0.10782335698604584,-0.26030582189559937,-0.048001956194639206
1738564387.188098,-0.04928204417228699,-0.031114764511585236,-0.30000555515289307,0.24728773534297943,-0.41644585132598877,-0.08352850377559662
1738564387.208256,-0.0934595912694931,-0.05839027464389801,-0.4290870428085327,0.5810580849647522,-0.38588032126426697,-0.2322869449853897
1738564387.229748,-0.12550756335258484,-0.046523623168468475,-0.48521190881729126,0.8608078956604004,-0.15096917748451233,-0.4195112884044647
1738564387.248117,-0.12986218929290771,-0.012772910296916962,-0.526701807975769,1.0500482320785522,0.013103310018777847,-0.5816609859466553
1738564387.2688289,-0.14755278825759888,0.017110414803028107,-0.5742359161376953,1.182181477546692,0.41789308190345764,-0.7619994878768921
1738564387.2884312,-0.17433547973632812,0.038715630769729614,-0.6245947480201721,1.3326687812805176,0.9137619733810425,-1.0504469871520996
1738564387.308356,-0.1430656611919403,0.06828299164772034,-0.7113326787948608,1.6773502826690674,1.1924164295196533,-1.2610812187194824
1738564387.3300362,-0.09916789084672928,0.16495397686958313,-0.7348693609237671,2.1203348636627197,1.2845453023910522,-1.2308173179626465
1738564387.348058,-0.0768953263759613,0.24025604128837585,-0.6931278705596924,2.547973394393921,1.2950444221496582,-1.1545971632003784
1738564387.3694592,-0.07472928613424301,0.29909321665763855,-0.6510997414588928,2.9718868732452393,1.36716628074646,-1.102081298828125
1738564387.388027,-0.06403464823961258,0.3445391058921814,-0.6164017915725708,3.392554521560669,1.6589936017990112,-1.067172646522522
1738564387.4081202,-0.04472420737147331,0.4161261320114136,-0.5267536640167236,3.6760454177856445,1.8413808345794678,-0.8629793524742126
1738564387.4298759,0.03146122395992279,0.43460431694984436,-0.40886247158050537,3.790090322494507,1.6473485231399536,-0.4492536187171936
1738564387.447948,0.09054920077323914,0.42358243465423584,-0.3491637706756592,3.8690314292907715,1.1233073472976685,0.054006095975637436
1738564387.469085,0.04380175471305847,0.4188646078109741,-0.41447532176971436,4.124842643737793,0.7447901368141174,0.4038620889186859
1738564387.487925,-0.07322552055120468,0.49669426679611206,-0.4571318030357361,4.371733665466309,0.6888500452041626,0.5998398065567017
1738564387.5082412,-0.17741329967975616,0.5773401856422424,-0.4457998275756836,4.7397050857543945,0.8542582392692566,0.6834125518798828
1738564387.5280151,-0.314144492149353,0.6785702705383301,-0.4005739688873291,5.060526371002197,1.1445602178573608,0.5387100577354431
1738564387.547828,-0.3457276225090027,0.7514512538909912,-0.2513945400714874,5.112861156463623,1.4021661281585693,0.3645654618740082
1738564387.571049,-0.2921735644340515,0.7705028057098389,-0.09438914060592651,4.989229679107666,1.5155245065689087,0.2589104473590851
1738564387.587741,-0.25873711705207825,0.7891871333122253,0.027152180671691895,4.710679531097412,1.3814409971237183,0.18273143470287323
1738564387.607734,-0.25740694999694824,0.7969921827316284,0.06474877893924713,4.454059600830078,1.2358198165893555,0.08151014894247055
1738564387.62983,-0.200330451130867,0.7371584177017212,0.08025819063186646,4.221652507781982,1.1072102785110474,-0.002303206827491522
1738564387.6481981,-0.1313275396823883,0.6854835152626038,0.08955514430999756,4.075122356414795,1.2503257989883423,-0.01125824823975563
1738564387.667417,-0.07595929503440857,0.6341957449913025,0.1131967306137085,3.86816143989563,1.44350266456604,0.0321042463183403
1738564387.6876578,-0.037256255745887756,0.5673877000808716,0.07040761411190033,3.860581398010254,1.6574668884277344,0.15116026997566223
1738564387.70769,-0.01469433307647705,0.5269442200660706,0.0073451995849609375,4.0005011558532715,1.6828728914260864,0.36426669359207153
1738564387.729301,-0.02814226597547531,0.48719656467437744,-0.00038045644760131836,4.177824974060059,1.7403336763381958,0.5531867146492004
1738564387.747843,-0.07325216382741928,0.49218910932540894,0.14841845631599426,4.0302300453186035,1.9310139417648315,0.6297115683555603
1738564387.767616,-0.12437964230775833,0.45315033197402954,0.3441975712776184,3.548825979232788,2.096471071243286,0.5374365448951721
1738564387.78756,-0.22042353451251984,0.4204867482185364,0.5418820977210999,2.819289445877075,2.3118932247161865,0.21496056020259857
1738564387.807405,-0.3083590865135193,0.35378098487854004,0.8648388981819153,1.731892466545105,2.4654958248138428,-0.2673085033893585
1738564387.830189,-0.4402305483818054,0.3315187096595764,1.1252624988555908,0.5660655498504639,2.144139051437378,-0.9913750290870667
1738564387.847453,-0.4501894414424896,0.4243388772010803,1.0554386377334595,-0.1492142379283905,1.820875883102417,-1.4381669759750366
1738564387.869333,-0.35580646991729736,0.5120168924331665,0.9802566170692444,-0.6769931316375732,1.5940721035003662,-1.3772804737091064
1738564387.887356,-0.23399445414543152,0.500983476638794,0.9301008582115173,-1.1539220809936523,0.8491013646125793,-0.9954125285148621
1738564387.9075298,-0.14912104606628418,0.41382819414138794,0.8050002455711365,-1.4804333448410034,-0.32188358902931213,-0.5611165165901184
1738564387.927732,-0.11820051074028015,0.36812615394592285,0.5962936282157898,-1.5765295028686523,-1.3875449895858765,-0.22340762615203857
1738564387.9473171,-0.10183747112751007,0.34293460845947266,0.44040021300315857,-1.6325743198394775,-2.0106289386749268,-0.016377491876482964
1738564387.967593,-0.08954988420009613,0.3258399963378906,0.42806246876716614,-1.903624415397644,-2.0792832374572754,0.05153887718915939
1738564387.987523,-0.08552783727645874,0.3429524898529053,0.43066757917404175,-2.3061535358428955,-1.798875093460083,0.03376232832670212
1738564388.007259,-0.07505124807357788,0.37493228912353516,0.40664517879486084,-2.7458298206329346,-1.3414382934570312,-0.012813970446586609
1738564388.028405,-0.07159232348203659,0.41288620233535767,0.372422993183136,-3.167950391769409,-0.8360582590103149,-0.06551019102334976
1738564388.047219,-0.0812392383813858,0.4576239585876465,0.30094924569129944,-3.4180679321289062,-0.5221324563026428,-0.14474107325077057
1738564388.067164,-0.12968863546848297,0.4759135842323303,0.1533498913049698,-3.3141086101531982,-0.4948609471321106,-0.28660616278648376
1738564388.087045,-0.09883755445480347,0.4578341245651245,0.03806936740875244,-2.994523763656616,-0.5025132298469543,-0.31798025965690613
1738564388.107242,-0.020086824893951416,0.48402905464172363,-0.01909291371703148,-2.710437297821045,-0.0009433100931346416,-0.14234520494937897
1738564388.129817,0.025937646627426147,0.5012096166610718,0.20254355669021606,-3.06264591217041,0.4887091815471649,0.06348805874586105
1738564388.147112,-0.06654083728790283,0.49919164180755615,0.35575002431869507,-3.7490692138671875,0.21326512098312378,-0.08113330602645874
1738564388.167124,-0.20151489973068237,0.5155783891677856,0.005851149559020996,-3.3581864833831787,-0.55299973487854,-0.3684886693954468
1738564388.1873178,-0.16005578637123108,0.4584084749221802,-0.1352030634880066,-3.013213872909546,-1.2903714179992676,-0.5261302590370178
1738564388.207477,-0.07038570940494537,0.4402691125869751,-0.012449055910110474,-3.360851764678955,-1.2582608461380005,-0.5537933707237244
1738564388.230101,0.011611655354499817,0.4534023404121399,0.050540536642074585,-3.930448293685913,-0.6053903102874756,-0.4629194438457489
1738564388.247004,-0.09262222051620483,0.489538311958313,-0.019971787929534912,-4.458796501159668,-0.4047994017601013,-0.7335471510887146
1738564388.266897,-0.18600262701511383,0.4218405485153198,-0.2880215048789978,-4.246755123138428,-0.5399185419082642,-1.215706706047058
1738564388.286977,-0.2184278517961502,0.4122370481491089,-0.40417009592056274,-3.7804462909698486,-0.4646415412425995,-1.6139004230499268
1738564388.306977,-0.056864023208618164,0.4310544729232788,-0.18101584911346436,-4.011069297790527,0.06736195087432861,-1.616469144821167
1738564388.326915,0.07770127058029175,0.4962337613105774,-0.14475899934768677,-4.406126976013184,0.6762681007385254,-1.351290225982666
1738564388.3468199,0.04313880205154419,0.4699435234069824,-0.28229284286499023,-4.271001815795898,0.029224634170532227,-1.1976490020751953
1738564388.366992,-0.04069027304649353,0.37814128398895264,-0.47256672382354736,-3.5744614601135254,-1.4095122814178467,-1.1192376613616943
1738564388.387302,0.17093425989151,0.31782034039497375,-0.5772141218185425,-3.0134053230285645,-2.606724977493286,-0.45498865842819214
1738564388.407378,0.5536734461784363,0.1991557776927948,-0.6649290919303894,-2.5593318939208984,-3.4154303073883057,1.0630266666412354
1738564388.4274368,0.5371713042259216,0.20559173822402954,-0.7197921872138977,-2.0008013248443604,-3.686582565307617,2.4004342555999756
1738564388.446797,0.18240007758140564,0.17305082082748413,-0.57431960105896,-1.7039601802825928,-3.4200680255889893,2.756516933441162
1738564388.4667768,-0.11168242245912552,0.13880854845046997,-0.24316251277923584,-2.148280143737793,-2.5767409801483154,2.35701060295105
1738564388.486598,-0.2361295223236084,0.09612137079238892,-0.08155536651611328,-2.906233072280884,-1.2975342273712158,1.7159346342086792
1738564388.506841,-0.320485383272171,0.08053207397460938,-0.33819258213043213,-2.9533605575561523,-0.45910850167274475,1.0466805696487427
1738564388.530021,-0.22697755694389343,-0.10176442563533783,-0.5037360191345215,-2.691934108734131,-0.32238319516181946,0.6164161562919617
1738564388.546731,-0.08191530406475067,-0.16112619638442993,-0.44856423139572144,-2.586369037628174,-0.6544487476348877,0.5456125140190125
1738564388.566817,-0.11554712057113647,-0.1303042769432068,-0.5842633247375488,-2.0354347229003906,-1.1465301513671875,0.4629429876804352
1738564388.586636,-0.18912474811077118,-0.1760980486869812,-0.7397339344024658,-1.131098747253418,-1.2997610569000244,0.0883931890130043
1738564388.606859,-0.1451181322336197,-0.16353382170200348,-0.6329619884490967,-0.5983400940895081,-0.8754793405532837,-0.24482060968875885
1738564388.627033,-0.045173391699790955,-0.08470117300748825,-0.4896965026855469,-0.3737744390964508,-0.14943473041057587,-0.3219687044620514
1738564388.646997,0.0261724591255188,-0.031044378876686096,-0.4116734266281128,-0.1932278722524643,0.4516237676143646,-0.21369026601314545
1738564388.666528,0.0279819518327713,-0.00952746719121933,-0.3492313027381897,0.10743291676044464,0.5671564340591431,-0.11395774781703949
1738564388.6889238,-0.034097179770469666,-0.016928885132074356,-0.2717990279197693,0.42612820863723755,0.3475712239742279,-0.1578555554151535
1738564388.706543,-0.04176127910614014,-0.014786530286073685,-0.14105224609375,0.5655096173286438,0.07315342128276825,-0.23636718094348907
1738564388.726565,-0.014833524823188782,0.019180022180080414,-0.05418974161148071,0.6329125761985779,-0.049233440309762955,-0.23749414086341858
1738564388.746705,0.007413730025291443,0.04048985615372658,-0.002280592918395996,0.6725126504898071,-0.03393935412168503,-0.2183014154434204
1738564388.7665591,0.04235786199569702,0.06620514392852783,-0.02812635898590088,0.8305152058601379,0.15029612183570862,-0.12321676313877106
1738564388.7860389,0.06535673141479492,0.07852600514888763,0.07762664556503296,0.7071232795715332,0.2463650405406952,-0.0021269740536808968
1738564388.806423,0.08529296517372131,0.0467982143163681,0.13632893562316895,0.4433352053165436,0.15106607973575592,0.07867477834224701
1738564388.8297992,0.09106171131134033,0.014436900615692139,0.08848434686660767,0.3308866322040558,0.08309057354927063,0.1897314488887787
