timestamp,acc_x,acc_y,acc_z,rot_x,rot_y,rot_z
1738564380.2960439,0.031074076890945435,-0.04282081127166748,0.20756381750106812,-0.09526827931404114,-0.1421559751033783,0.08027677983045578
1738564380.2971601,-0.035070180892944336,-0.05574721097946167,0.09014147520065308,-0.4057605266571045,-0.25561875104904175,-0.03889669477939606
1738564380.300636,-0.046234726905822754,0.02722659707069397,-0.08613854646682739,-0.266856849193573,-0.18297238647937775,-0.12050900608301163
1738564380.3210359,-0.01279515027999878,-0.01839408278465271,-0.12372064590454102,-0.03935575857758522,0.006817525252699852,-0.1207067146897316
1738564380.341399,0.003072872757911682,-0.006539732217788696,-0.10069400072097778,0.1003275141119957,0.15739698708057404,-0.11752532422542572
1738564380.360728,0.008822798728942871,-0.011450469493865967,-0.04718434810638428,0.07301340997219086,0.18273955583572388,-0.0788358524441719
1738564380.381244,-0.017438992857933044,-0.014132216572761536,-0.07282423973083496,0.05919310450553894,0.08751510083675385,-0.10487382113933563
1738564380.401052,-0.03716635704040527,-0.012946546077728271,-0.1145029067993164,0.15874388813972473,-0.014461458660662174,-0.16506893932819366
1738564380.421195,-0.02895762026309967,-0.01386171579360962,-0.13435626029968262,0.25813665986061096,-0.10780999064445496,-0.19964435696601868
1738564380.441454,-0.014580443501472473,-0.011165395379066467,-0.14688998460769653,0.3173081874847412,-0.0602225586771965,-0.1826888918876648
1738564380.46076,-0.023342370986938477,-0.02226051688194275,-0.1753566861152649,0.3395739197731018,0.020676681771874428,-0.17176805436611176
1738564380.4808211,-0.05339667201042175,-0.03805798292160034,-0.24597185850143433,0.4179856777191162,0.055521752685308456,-0.23231855034828186
1738564380.5009809,-0.11213339865207672,-0.04073631763458252,-0.38222891092300415,0.6015834212303162,-0.005554317031055689,-0.39766764640808105
1738564380.5208302,-0.110690176486969,-0.063892662525177,-0.5438849925994873,1.0292550325393677,-0.08383547514677048,-0.5258989334106445
1738564380.542114,-0.08095121383666992,-0.05503121018409729,-0.570762574672699,1.4228390455245972,-0.10335737466812134,-0.5615091919898987
1738564380.560822,-0.08239656686782837,-0.029120296239852905,-0.5796657800674438,1.6321361064910889,-0.054709549993276596,-0.5875731110572815
1738564380.582749,-0.15590858459472656,-0.005896031856536865,-0.6453409790992737,1.8802578449249268,0.26933714747428894,-0.8102612495422363
1738564380.6007528,-0.1729126274585724,0.028225868940353394,-0.6248401999473572,2.157601833343506,0.8340185880661011,-1.1265316009521484
1738564380.620885,-0.11199136078357697,0.10556924343109131,-0.5140396952629089,2.3183858394622803,1.285879135131836,-1.2908508777618408
1738564380.642816,-0.112302765250206,0.16301873326301575,-0.4793289303779602,2.6114065647125244,1.6611042022705078,-1.3800541162490845
1738564380.660684,-0.057787276804447174,0.23679286241531372,-0.4284929037094116,2.900527000427246,1.443472146987915,-1.2951197624206543
1738564380.6823878,0.08576572686433792,0.2415056824684143,-0.3626277446746826,3.100954294204712,0.8611293435096741,-0.892485499382019
1738564380.70091,0.18403249979019165,0.2168242335319519,-0.3204728960990906,3.2541162967681885,0.35696783661842346,-0.3902474045753479
1738564380.720907,0.1132899671792984,0.22342127561569214,-0.38403236865997314,3.429577112197876,0.15477816760540009,-0.009583848528563976
1738564380.742213,-0.001877516508102417,0.2712673544883728,-0.4667268395423889,3.7776336669921875,0.19326449930667877,0.17875173687934875
1738564380.761148,-0.09388621151447296,0.3224393129348755,-0.4078958034515381,3.9743552207946777,0.4020463526248932,0.2302829474210739
1738564380.781029,-0.1768382340669632,0.3712460994720459,-0.3265722990036011,4.020528793334961,0.6905086636543274,0.10604357719421387
1738564380.800747,-0.20353145897388458,0.4301069974899292,-0.20996084809303284,3.8735883235931396,0.9338470697402954,-0.0729454979300499
1738564380.82058,-0.22527572512626648,0.4330284595489502,-0.19790595769882202,3.754014253616333,1.0977600812911987,-0.2929667532444
1738564380.84261,-0.24310655891895294,0.47826290130615234,-0.2070554792881012,3.814701795578003,1.1406916379928589,-0.5692120790481567
1738564380.86047,-0.23434984683990479,0.5071476101875305,-0.19193357229232788,3.9165971279144287,1.149440050125122,-0.7946708798408508
1738564380.88046,-0.17452071607112885,0.5588541030883789,-0.11681050062179565,3.976909875869751,1.1923171281814575,-0.8876038193702698
1738564380.9004369,-0.058503031730651855,0.5719991326332092,-0.014730334281921387,3.833428144454956,1.2257651090621948,-0.6972008943557739
1738564380.920785,-0.02585664391517639,0.5720453858375549,-0.0027518272399902344,3.747892141342163,1.2655482292175293,-0.45626527070999146
1738564380.942432,-0.037086665630340576,0.5568652153015137,-0.037068724632263184,3.7851758003234863,1.260435938835144,-0.2676941156387329
1738564380.9602861,-0.029066011309623718,0.5517318248748779,-0.020562179386615753,3.8453586101531982,1.3186650276184082,-0.1086731031537056
1738564380.980297,-0.036824122071266174,0.5332006812095642,-0.0073431432247161865,3.8522610664367676,1.365790605545044,0.004368487745523453
1738564381.000237,-0.058541104197502136,0.5084682106971741,-0.007753700017929077,3.965965986251831,1.4501957893371582,0.04865484684705734
1738564381.020512,-0.028763659298419952,0.48157423734664917,0.1241225004196167,3.8140625953674316,1.7116726636886597,0.1571209877729416
1738564381.043129,-0.014677442610263824,0.427193820476532,0.2512757480144501,3.3701281547546387,1.784379005432129,0.3128606677055359
1738564381.0601091,-0.03360334783792496,0.34557050466537476,0.3456917703151703,2.9153623580932617,1.674262523651123,0.4130649268627167
1738564381.0802221,-0.09313591569662094,0.2703571915626526,0.46490031480789185,2.3007547855377197,1.366780161857605,0.3336891531944275
1738564381.099998,-0.18488673865795135,0.25479763746261597,0.4896830916404724,1.7823997735977173,1.1094645261764526,0.018434349447488785
1738564381.120298,-0.24425332248210907,0.31347572803497314,0.5364608764648438,1.2970298528671265,1.2865221500396729,-0.4126986265182495
1738564381.141314,-0.2456442266702652,0.3937915563583374,0.6440209746360779,0.6456451416015625,1.967771291732788,-0.7347726821899414
1738564381.160481,-0.22635133564472198,0.42121171951293945,0.6769351959228516,0.10910026729106903,2.463900327682495,-0.883636474609375
1738564381.180515,-0.1732824742794037,0.367504358291626,0.6824212074279785,-0.26306307315826416,2.117551803588867,-0.8376229405403137
1738564381.2004519,-0.10370799899101257,0.31238222122192383,0.6593151688575745,-0.5198955535888672,0.9683946371078491,-0.5807583928108215
1738564381.220228,-0.07235504686832428,0.2807108759880066,0.514474630355835,-0.5357193350791931,-0.5895452499389648,-0.21009719371795654
1738564381.240128,-0.054100796580314636,0.27230483293533325,0.4605531096458435,-0.571490466594696,-1.761558175086975,0.1565641462802887
1738564381.260046,-0.034409329295158386,0.2771573066711426,0.44335466623306274,-0.8232869505882263,-2.113536834716797,0.38992270827293396
1738564381.2799559,-0.012150850147008896,0.2971005439758301,0.4347338080406189,-1.2555553913116455,-1.6628988981246948,0.5321344137191772
1738564381.300089,-0.018310323357582092,0.31952083110809326,0.41232430934906006,-1.76638662815094,-0.8605446219444275,0.5453553795814514
1738564381.3200278,-0.08197123557329178,0.3397272229194641,0.30455735325813293,-2.068941354751587,-0.38323816657066345,0.4074438214302063
1738564381.341343,-0.13203340768814087,0.3189857006072998,0.24756836891174316,-2.0860917568206787,-0.38748157024383545,0.14399529993534088
1738564381.3599339,-0.10149090737104416,0.30046194791793823,0.3160763084888458,-2.25860333442688,-0.5080100893974304,-0.08684543520212173
1738564381.3801808,-0.05138193443417549,0.3181191682815552,0.39904603362083435,-2.69341778755188,-0.4734359681606293,-0.18616700172424316
1738564381.40011,-0.014243707060813904,0.36147522926330566,0.43007707595825195,-3.3176910877227783,-0.3084908127784729,-0.21794700622558594
1738564381.420248,-0.04945426061749458,0.42522263526916504,0.29697972536087036,-3.7254059314727783,-0.24669936299324036,-0.28543245792388916
1738564381.442031,-0.08853968232870102,0.4502629041671753,0.13538719713687897,-3.7535665035247803,-0.36581555008888245,-0.39728057384490967
1738564381.459869,-0.09316344559192657,0.4416000247001648,0.07857239246368408,-3.6890037059783936,-0.5634205341339111,-0.5154486298561096
1738564381.479772,-0.06413958221673965,0.44482773542404175,0.10750985145568848,-3.7332184314727783,-0.620735764503479,-0.5394943356513977
1738564381.499813,-0.050820931792259216,0.47811728715896606,0.13415014743804932,-3.931204080581665,-0.7369703650474548,-0.49423766136169434
1738564381.519763,-0.06529455631971359,0.4905216097831726,0.062098756432533264,-4.002220630645752,-0.987126350402832,-0.42733266949653625
1738564381.54159,-0.11716345697641373,0.4818210005760193,-0.03800760209560394,-3.9356842041015625,-1.3206144571304321,-0.48119452595710754
1738564381.559726,-0.08528272807598114,0.47950172424316406,-0.10184058547019958,-3.779461622238159,-1.6962862014770508,-0.4826015830039978
1738564381.57985,-0.03456225246191025,0.5144590139389038,-0.16082990169525146,-3.3866984844207764,-1.9569170475006104,-0.3030018210411072
1738564381.599949,0.001767568290233612,0.578273355960846,-0.1476987898349762,-2.8979735374450684,-2.2932748794555664,0.029679249972105026
1738564381.619678,-0.05340631306171417,0.5769274234771729,-0.0613095760345459,-2.790515661239624,-2.471404552459717,0.2573150098323822
1738564381.6427011,-0.09475920349359512,0.5709834694862366,0.07653665542602539,-3.3777987957000732,-2.1945245265960693,0.2896201014518738
1738564381.6599998,-0.05693312734365463,0.5680186152458191,0.021145641803741455,-3.850428819656372,-1.7795873880386353,0.404682457447052
1738564381.67999,-0.14914411306381226,0.5657366514205933,-0.12400126457214355,-3.940415620803833,-1.46133291721344,0.38420626521110535
1738564381.699358,-0.28806090354919434,0.5174357891082764,-0.23524701595306396,-3.973520040512085,-1.2151310443878174,0.03495149314403534
1738564381.719455,-0.16437199711799622,0.45092493295669556,-0.21921098232269287,-4.158185005187988,-1.0509921312332153,-0.04124053567647934
1738564381.739558,0.029563993215560913,0.367234468460083,-0.2785535454750061,-4.453585624694824,-1.4887056350708008,0.5792014002799988
1738564381.759677,0.04911120980978012,0.18171975016593933,-0.5072507858276367,-4.491605758666992,-2.708355665206909,1.4428032636642456
1738564381.779638,-0.06511092185974121,0.011890619993209839,-0.7712237238883972,-4.128279209136963,-3.498481273651123,2.073197841644287
1738564381.801918,-0.16630607843399048,0.10453417897224426,-0.9296162128448486,-3.207308292388916,-2.724372148513794,2.497519016265869
1738564381.819499,-0.28565260767936707,0.16346246004104614,-0.8828390836715698,-2.1116244792938232,-1.2349392175674438,2.4807441234588623
1738564381.843143,-0.32584652304649353,0.12497515976428986,-0.5282993316650391,-1.7332944869995117,0.2144751250743866,1.9797581434249878
1738564381.859205,-0.3156805634498596,0.08531242609024048,-0.1576746702194214,-2.2518959045410156,1.599751353263855,1.2982890605926514
1738564381.879693,-0.2929730713367462,0.0893390104174614,-0.07142704725265503,-3.0811078548431396,2.2580511569976807,0.7171602845191956
1738564381.899754,-0.3191801905632019,-0.007296208292245865,-0.33098286390304565,-3.2109553813934326,1.5225238800048828,0.12100410461425781
1738564381.9195828,-0.26877015829086304,-0.08869302272796631,-0.5603137016296387,-2.7659659385681152,-0.09313417971134186,-0.42763495445251465
1738564381.939338,-0.17627787590026855,-0.06562097370624542,-0.7265632152557373,-1.959629774093628,-1.1618009805679321,-0.6922506093978882
1738564381.959955,-0.020584166049957275,-0.07005177438259125,-0.7471781969070435,-1.1950634717941284,-1.0645264387130737,-0.7055147886276245
1738564381.979214,0.07785406708717346,0.008436717092990875,-0.6420117616653442,-0.6639856100082397,-0.18425342440605164,-0.6001107692718506
1738564381.999205,0.1383001208305359,0.007086299359798431,-0.4964555501937866,-0.3329605162143707,0.6730080246925354,-0.4545605778694153
1738564382.019253,0.09230384230613708,0.020566731691360474,-0.3691328167915344,-0.00920546893030405,1.0258530378341675,-0.3750546872615814
1738564382.0391169,0.05787390470504761,0.02963574230670929,-0.22304785251617432,0.2664274573326111,0.968657910823822,-0.32451024651527405
1738564382.060203,0.056119099259376526,0.03160180151462555,-0.09758555889129639,0.35366290807724,0.620311975479126,-0.2743922472000122
1738564382.079041,0.08032162487506866,0.03967732936143875,-0.09615564346313477,0.45900198817253113,0.19809295237064362,-0.15176470577716827
1738564382.099831,0.11732921004295349,0.048896320164203644,-0.09125787019729614,0.6747197508811951,-0.09011021256446838,0.07932370156049728
1738564382.119506,0.13932719826698303,0.03188822790980339,-0.007839858531951904,0.6788541078567505,-0.2512940466403961,0.2845667898654938
1738564382.139586,0.14868246018886566,0.008121218532323837,0.06909066438674927,0.4569288492202759,-0.21912066638469696,0.46097058057785034
