timestamp,acc_x,acc_y,acc_z,rot_x,rot_y,rot_z
1738564414.6239638,0.05659818649291992,-0.014395594596862793,0.10775899887084961,-0.6179075837135315,-0.20674064755439758,-0.052663784474134445
1738564414.6243749,-0.011128783226013184,0.002770647406578064,-0.02793651819229126,-0.4234949052333832,-0.09297840297222137,-0.04206514731049538
1738564414.636936,-0.008063539862632751,0.008799895644187927,-0.1328796148300171,-0.03409825265407562,-0.04381396621465683,-0.03396373614668846
1738564414.658688,0.024403512477874756,-0.008328169584274292,-0.053783953189849854,0.03771412372589111,-0.012145720422267914,0.008798288181424141
1738564414.676605,0.01521940529346466,-0.004451483488082886,0.01814854145050049,-0.07487811893224716,0.031696468591690063,0.03633137047290802
1738564414.697036,0.008654430508613586,-0.00982588529586792,0.012103438377380371,-0.14499616622924805,0.02517750859260559,0.028291162103414536
1738564414.716998,-0.0033556073904037476,-0.012133598327636719,0.0026412606239318848,-0.17300504446029663,-0.011422157287597656,-0.0017240094020962715
1738564414.7372541,-0.017942771315574646,-0.006734788417816162,-0.0159643292427063,-0.11467002332210541,-0.06752597540616989,-0.053854506462812424
1738564414.760281,-0.016524791717529297,-0.011027202010154724,-0.027467429637908936,-0.06490892171859741,-0.07374221831560135,-0.09745423495769501
1738564414.776922,0.00799185037612915,-0.00853508710861206,-0.008761703968048096,-0.10031986981630325,-0.016419388353824615,-0.09404367208480835
1738564414.796879,0.020850688219070435,-0.0006843656301498413,-0.02195584774017334,-0.14473983645439148,-0.017225198447704315,-0.06581026315689087
1738564414.81687,0.002317368984222412,0.011308610439300537,-0.09973406791687012,-0.11464989185333252,-0.15662617981433868,-0.058143578469753265
1738564414.836946,-0.0078074634075164795,-0.01842328906059265,-0.17296600341796875,-0.0428013876080513,-0.3382264971733093,-0.09597654640674591
1738564414.859746,-0.05499345064163208,-0.014244988560676575,-0.25910741090774536,0.03955889120697975,-0.3510734438896179,-0.20489391684532166
1738564414.8769798,-0.0839938074350357,-0.01902775466442108,-0.3491482138633728,0.09942473471164703,-0.20083239674568176,-0.3276776671409607
1738564414.8966432,-0.08249334990978241,-0.02623361349105835,-0.41868019104003906,0.19329296052455902,-0.04154961556196213,-0.39465171098709106
1738564414.916446,-0.10623189806938171,-0.015323549509048462,-0.527934193611145,0.562012791633606,0.01295933686196804,-0.46532756090164185
1738564414.9369512,-0.12609541416168213,-0.008500471711158752,-0.581360936164856,1.067191243171692,0.12544944882392883,-0.5800834894180298
1738564414.960001,-0.11077159643173218,0.008451133966445923,-0.4887579083442688,1.361974835395813,0.44500306248664856,-0.7119821310043335
1738564414.976635,-0.09980209171772003,0.04856055974960327,-0.37855255603790283,1.478271722793579,0.8333053588867188,-0.817719578742981
1738564414.996598,-0.07852005958557129,0.06720602512359619,-0.2854177951812744,1.5484082698822021,1.093411922454834,-0.8831470012664795
1738564415.0171351,-0.08117690682411194,0.08003231883049011,-0.21402901411056519,1.606245756149292,1.3982096910476685,-0.9919323921203613
1738564415.036497,-0.04866480827331543,0.09520864486694336,-0.12034130096435547,1.5543097257614136,1.4372901916503906,-0.9709563255310059
1738564415.060122,0.004790365695953369,0.11538830399513245,-0.14713257551193237,1.6907050609588623,1.0002607107162476,-0.7681783437728882
1738564415.0771341,0.09127767384052277,0.12554672360420227,-0.19601362943649292,1.963094711303711,0.35906606912612915,-0.37220099568367004
1738564415.096549,0.1081390231847763,0.14159917831420898,-0.21577459573745728,2.1776108741760254,-0.0025907219387590885,-0.011823887005448341
1738564415.11678,0.035736337304115295,0.1591290831565857,-0.2102561593055725,2.2526276111602783,-0.08497943729162216,0.1208890825510025
1738564415.136399,-0.031088218092918396,0.15235596895217896,-0.22683113813400269,2.3539836406707764,0.07423203438520432,0.11046452075242996
1738564415.156382,-0.058491017669439316,0.14433425664901733,-0.19831007719039917,2.3623251914978027,0.23087306320667267,0.02690831571817398
1738564415.176711,-0.07376116514205933,0.15137797594070435,-0.16376817226409912,2.348792791366577,0.44784530997276306,-0.08509773015975952
1738564415.1968598,-0.09611401706933975,0.17632728815078735,-0.12392151355743408,2.287324905395508,0.6504944562911987,-0.2398347109556198
1738564415.2174392,-0.09090029448270798,0.2118186354637146,-0.1315913200378418,2.3401167392730713,0.7218912243843079,-0.3207327127456665
1738564415.236264,-0.03712839633226395,0.232924222946167,-0.08025592565536499,2.356520891189575,0.6215927600860596,-0.27876225113868713
1738564415.257444,-0.002741754986345768,0.25629931688308716,-0.060723960399627686,2.4639480113983154,0.5337517857551575,-0.1903817057609558
1738564415.2771292,-0.023721979930996895,0.27341485023498535,-0.023939788341522217,2.549699544906616,0.5624569058418274,-0.16692626476287842
1738564415.296328,-0.032351478934288025,0.2815060615539551,0.04915863275527954,2.5217344760894775,0.642818808555603,-0.18556897342205048
1738564415.316863,-0.03311285376548767,0.2707661986351013,0.13033580780029297,2.3477795124053955,0.606268584728241,-0.22977766394615173
1738564415.336143,-0.034465525299310684,0.27168363332748413,0.1633930504322052,2.170289993286133,0.541422426700592,-0.22298258543014526
1738564415.35611,0.00434422492980957,0.24906843900680542,0.14330798387527466,2.083139419555664,0.4505971670150757,-0.13792330026626587
1738564415.376721,0.022989939898252487,0.23768013715744019,0.1492542326450348,1.9837474822998047,0.3656178414821625,-0.023432733491063118
1738564415.3964639,0.008430778980255127,0.21578705310821533,0.1500057578086853,1.865984320640564,0.32610902190208435,0.041015613824129105
1738564415.417496,0.006492823362350464,0.1819671392440796,0.1397666335105896,1.7424817085266113,0.2738059163093567,0.08502858877182007
1738564415.435979,0.000413261353969574,0.14438682794570923,0.08395698666572571,1.7794609069824219,0.23040832579135895,0.10513074696063995
1738564415.456046,-0.0010985508561134338,0.12940925359725952,0.0895753800868988,1.7607150077819824,0.21004696190357208,0.11582793295383453
1738564415.477265,-0.0053501129150390625,0.12025320529937744,0.11114740371704102,1.6459057331085205,0.28199106454849243,0.12397304177284241
1738564415.496183,0.0031364858150482178,0.10230839252471924,0.11514836549758911,1.492289662361145,0.39838314056396484,0.13698583841323853
1738564415.516967,-0.02926500141620636,0.08928477764129639,0.08716505765914917,1.436527132987976,0.4389136731624603,0.10186630487442017
1738564415.535871,-0.04520826414227486,0.07426708936691284,0.039663150906562805,1.495546579360962,0.3499624729156494,0.030252007767558098
1738564415.555928,-0.03412437438964844,0.07196235656738281,0.061258673667907715,1.494467854499817,0.31496575474739075,-0.014227645471692085
1738564415.575721,-0.07518850266933441,0.06353676319122314,0.02589958906173706,1.6067427396774292,0.36572983860969543,-0.14572498202323914
1738564415.595889,-0.07755056768655777,0.07062608003616333,0.04938703402876854,1.5954800844192505,0.4658714234828949,-0.24516025185585022
1738564415.617593,-0.019889749586582184,0.06337058544158936,0.09361690282821655,1.4734457731246948,0.47089454531669617,-0.23624128103256226
1738564415.635819,-0.03514765202999115,0.05950927734375,-0.0023421049118041992,1.6285675764083862,0.369035929441452,-0.24980832636356354
1738564415.655797,-0.015920668840408325,0.07169389724731445,0.013781070709228516,1.6802382469177246,0.33393943309783936,-0.21301373839378357
1738564415.6775231,0.0049123987555503845,0.08050006628036499,0.07527362555265427,1.5599346160888672,0.42903411388397217,-0.1556081473827362
1738564415.695849,0.021910659968852997,0.07626748085021973,0.09738408774137497,1.3948570489883423,0.5496947169303894,-0.10585127025842667
1738564415.717046,0.007828563451766968,0.07242995500564575,0.01725602149963379,1.456741213798523,0.6098490357398987,-0.08906395733356476
1738564415.7357311,0.01661907136440277,0.06437689065933228,-0.04182720184326172,1.6206307411193848,0.6843198537826538,-0.0691380500793457
1738564415.7564712,0.04114556312561035,0.07977640628814697,-0.024916410446166992,1.7006078958511353,0.8325367569923401,0.018789218738675117
1738564415.775707,0.0701536163687706,0.09039688110351562,-0.04039815068244934,1.8059014081954956,1.0360386371612549,0.1715581864118576
1738564415.795665,0.07221447676420212,0.09141683578491211,-0.030851691961288452,1.88607919216156,1.145947813987732,0.30130597949028015
1738564415.815888,0.06968386471271515,0.09254002571105957,0.01568305492401123,1.8505470752716064,1.2015079259872437,0.4243677258491516
1738564415.8358378,0.05991940572857857,0.08434861898422241,0.06416168808937073,1.7139521837234497,1.1783804893493652,0.49557965993881226
1738564415.8555388,0.04778352007269859,0.06111794710159302,0.03881746530532837,1.663342833518982,1.0568994283676147,0.5364789962768555
1738564415.875453,0.06419780850410461,0.06032443046569824,0.09041067957878113,1.443494439125061,0.9697347283363342,0.6056020855903625
1738564415.8955731,0.07902845740318298,0.036901652812957764,0.1229691207408905,1.1745737791061401,0.9209493398666382,0.694482147693634
1738564415.9154801,0.06301537156105042,0.035460591316223145,0.1187429130077362,0.9631310105323792,0.845172643661499,0.7642759084701538
1738564415.935493,0.02477659285068512,0.03682398796081543,0.11700975894927979,0.7840273976325989,0.749353289604187,0.7718276977539062
1738564415.9554439,-0.01153969019651413,0.022571563720703125,0.1283603310585022,0.5825740694999695,0.7645813822746277,0.698647141456604
1738564415.977355,-0.045124396681785583,0.02157658338546753,0.1599462628364563,0.29163044691085815,0.9961040616035461,0.5323341488838196
1738564415.995517,-0.10814306139945984,0.027460992336273193,0.08889889717102051,0.20883852243423462,1.2985904216766357,0.2567508816719055
1738564416.015451,-0.14601024985313416,0.010520577430725098,0.02174055576324463,0.27919673919677734,1.4066708087921143,-0.027756132185459137
1738564416.035369,-0.12090127170085907,-0.00484013557434082,0.08292508125305176,0.22251909971237183,1.325946569442749,-0.19195017218589783
1738564416.0555038,-0.09023624658584595,-0.001980900764465332,0.09875607490539551,0.19794902205467224,1.035743236541748,-0.20880962908267975
1738564416.077086,-0.08148336410522461,0.009062051773071289,0.10410323739051819,0.17582343518733978,0.7285633087158203,-0.20430412888526917
1738564416.095343,-0.09029269218444824,0.03863734006881714,0.13269227743148804,0.09755849838256836,0.5345064997673035,-0.21082261204719543
1738564416.115364,-0.08314888179302216,0.05425846576690674,0.12715959548950195,0.04516289755702019,0.3534470200538635,-0.2010928839445114
1738564416.135283,-0.0468614399433136,0.04321408271789551,0.11339390277862549,-0.006058125756680965,0.06961306184530258,-0.13314074277877808
1738564416.155359,-0.016994893550872803,0.029281556606292725,0.11078086495399475,-0.09906502068042755,-0.2108398675918579,-0.05795726552605629
1738564416.1765862,-0.0066185444593429565,0.008830904960632324,0.0761147141456604,-0.15968425571918488,-0.3720262944698334,-0.029972000047564507
1738564416.19558,0.00648750364780426,0.014301478862762451,0.03846415877342224,-0.17838963866233826,-0.3398312032222748,-0.009739859960973263
1738564416.2171922,0.021086961030960083,0.023470699787139893,0.026961326599121094,-0.20831596851348877,-0.21396799385547638,0.008610306307673454
1738564416.235032,0.016057565808296204,0.02227962017059326,0.02415284514427185,-0.19237321615219116,-0.10311440378427505,-0.00668798154219985
1738564416.255223,-0.015327215194702148,0.02185279130935669,0.049164414405822754,-0.17834998667240143,-0.10411664098501205,-0.08137805759906769
1738564416.275969,-0.033053770661354065,0.01148998737335205,0.13175159692764282,-0.2944207489490509,-0.21178284287452698,-0.178762748837471
1738564416.29534,-0.045275405049324036,0.04190421104431152,0.15699869394302368,-0.40561389923095703,-0.24923720955848694,-0.24655146896839142
1738564416.315363,-0.04050903022289276,0.07767593860626221,0.19294890761375427,-0.58514803647995,-0.16786964237689972,-0.2618750333786011
1738564416.3350701,-0.03733082115650177,0.10808932781219482,0.2427920699119568,-0.8776780366897583,0.04107603803277016,-0.2538963258266449
1738564416.354903,-0.04332631826400757,0.11726784706115723,0.2236860990524292,-1.1127125024795532,0.23427966237068176,-0.27073749899864197
1738564416.37514,-0.032569609582424164,0.09163522720336914,0.19099757075309753,-1.2999567985534668,0.3485938608646393,-0.2873832881450653
1738564416.394936,-0.024722769856452942,0.0842975378036499,0.18723171949386597,-1.5152121782302856,0.3978542387485504,-0.30800649523735046
1738564416.415009,-0.02205350250005722,0.07080936431884766,0.12599346041679382,-1.5625563859939575,0.32791441679000854,-0.31621307134628296
1738564416.434795,-0.01517157256603241,0.08037328720092773,0.07555505633354187,-1.510087251663208,0.14479395747184753,-0.30206674337387085
1738564416.454824,-0.02753588557243347,0.07290077209472656,0.04496335983276367,-1.3940058946609497,-0.09278693795204163,-0.3124452531337738
1738564416.476018,-0.039792656898498535,0.045327186584472656,0.0635840892791748,-1.3771836757659912,-0.2593812942504883,-0.4012186825275421
1738564416.494828,-0.04414012283086777,0.04354894161224365,0.11704407632350922,-1.5122649669647217,-0.25814419984817505,-0.503966212272644
1738564416.5149732,-0.01194232702255249,0.06771910190582275,0.14481675624847412,-1.7341712713241577,-0.0352751724421978,-0.5246586799621582
1738564416.535187,0.01821804791688919,0.12114989757537842,0.14134131371974945,-1.897050380706787,0.1662168949842453,-0.4407651722431183
1738564416.554858,-0.022734366357326508,0.13386589288711548,0.009324535727500916,-1.6142659187316895,0.021161867305636406,-0.40806540846824646
1738564416.576377,-0.06627386808395386,0.09813839197158813,-0.024045705795288086,-1.2830668687820435,-0.27264830470085144,-0.48474350571632385
1738564416.5946999,-0.057021286338567734,0.08102917671203613,0.12078402936458588,-1.3879692554473877,-0.4170643091201782,-0.5201091170310974
1738564416.614666,-0.015007255598902702,0.0937110185623169,0.22076082229614258,-1.7634197473526,-0.3084844648838043,-0.46143993735313416
1738564416.634691,0.02476474642753601,0.11631149053573608,0.25736939907073975,-2.2390429973602295,-0.1088058352470398,-0.36877360939979553
1738564416.6547132,-0.02389785647392273,0.14408987760543823,0.05688673257827759,-2.054495096206665,-0.3086874186992645,-0.3539959788322449
1738564416.6761398,-0.07068833708763123,0.10739177465438843,-0.09452378749847412,-1.540550947189331,-0.7644745111465454,-0.4380612075328827
1738564416.694577,-0.07379719614982605,0.10266900062561035,0.07721883058547974,-1.5995701551437378,-0.7614399194717407,-0.5195834040641785
1738564416.714837,-0.04025614261627197,0.10845303535461426,0.23052537441253662,-2.1394290924072266,-0.41891908645629883,-0.5917212963104248
1738564416.734838,0.026043204590678215,0.15615326166152954,0.21372397243976593,-2.5529427528381348,-0.12221626192331314,-0.4941166639328003
1738564416.754556,0.020691365003585815,0.17820656299591064,0.0029845237731933594,-2.2368721961975098,-0.44172751903533936,-0.350443959236145
1738564416.776774,-0.06339222192764282,0.12824982404708862,-0.1602899432182312,-1.5697860717773438,-1.0814045667648315,-0.42198893427848816
1738564416.794445,-0.0774422287940979,0.09130251407623291,0.030002236366271973,-1.5704803466796875,-1.196027398109436,-0.559253990650177
1738564416.8145308,-0.06175157055258751,0.1115911602973938,0.200535386800766,-2.1061081886291504,-0.7320125699043274,-0.6945410370826721
1738564416.83504,0.01582694798707962,0.1674365997314453,0.16953930258750916,-2.4666662216186523,-0.29878365993499756,-0.5907552242279053
1738564416.854377,0.029649682343006134,0.2002050280570984,0.04122352600097656,-2.4105048179626465,-0.3885754346847534,-0.4344349801540375
1738564416.8762422,-0.031442925333976746,0.1426432728767395,-0.13188773393630981,-1.8834706544876099,-0.8354848027229309,-0.4379885196685791
1738564416.8941941,-0.06917370855808258,0.10274004936218262,-0.08385995030403137,-1.6037224531173706,-1.0928955078125,-0.538428544998169
1738564416.914475,-0.03728201985359192,0.11746084690093994,0.0685034990310669,-1.7782405614852905,-1.0046184062957764,-0.5463581085205078
1738564416.934513,0.015594154596328735,0.1516815423965454,0.13622510433197021,-2.149702787399292,-0.6684122085571289,-0.417083203792572
1738564416.954567,0.02860429883003235,0.19151091575622559,0.147111713886261,-2.5924489498138428,-0.46243980526924133,-0.30893218517303467
1738564416.974646,-0.04644086956977844,0.1627495288848877,-0.06729257106781006,-2.442763328552246,-0.6828083992004395,-0.43397197127342224
1738564416.994804,-0.08334675431251526,0.08928573131561279,-0.2645910978317261,-1.8598045110702515,-1.004602313041687,-0.6423295140266418
1738564417.014044,-0.030595943331718445,0.09640538692474365,-0.15882784128189087,-1.670268177986145,-1.0231375694274902,-0.6757391095161438
1738564417.0350962,0.05437720939517021,0.12141084671020508,-0.05457824468612671,-1.7152329683303833,-0.736566424369812,-0.4942529797554016
1738564417.054189,0.059170857071876526,0.15178442001342773,0.03172332048416138,-2.0014431476593018,-0.4703030586242676,-0.33089667558670044
1738564417.077795,0.031413331627845764,0.16334259510040283,-0.006996631622314453,-2.1553714275360107,-0.5215522646903992,-0.2384842038154602
1738564417.094454,-0.03312300890684128,0.11205500364303589,-0.18309706449508667,-1.8225663900375366,-0.7436712384223938,-0.30539393424987793
1738564417.114232,-0.010554425418376923,0.07989633083343506,-0.1746656894683838,-1.5732873678207397,-0.7513101100921631,-0.31933003664016724
1738564417.13463,0.02104181796312332,0.09814691543579102,-0.05769592523574829,-1.6826366186141968,-0.5041118264198303,-0.2614516317844391
1738564417.154403,0.05943460017442703,0.11057960987091064,-0.01927119493484497,-1.8211497068405151,-0.16507574915885925,-0.07242429256439209
1738564417.174516,0.05330204218626022,0.111554354429245,-0.025572359561920166,-1.9607629776000977,0.00019702734425663948,0.06797391176223755
1738564417.194689,-0.03680262714624405,0.0608503520488739,-0.11348181962966919,-1.8500615358352661,0.034300435334444046,-0.015631716698408127
1738564417.2140908,-0.07553957402706146,0.03420481085777283,-0.15904253721237183,-1.6914609670639038,-0.17109006643295288,-0.13660547137260437
1738564417.234398,0.01293933391571045,-0.008270889520645142,-0.13177251815795898,-1.6687883138656616,-0.26077550649642944,-0.07048453390598297
1738564417.253942,0.08649402856826782,0.011222511529922485,-0.1694178581237793,-1.686510682106018,0.1110260859131813,0.19258689880371094
1738564417.274036,0.14647209644317627,0.007311105728149414,-0.16046041250228882,-1.8510886430740356,0.5095674991607666,0.5182958245277405
1738564417.294465,0.1254691779613495,0.02063789963722229,-0.16987979412078857,-1.903626799583435,0.4040451645851135,0.7272799015045166
1738564417.313864,0.027665652334690094,-0.038943082094192505,-0.2866538166999817,-1.4325863122940063,-0.2955376207828522,0.5948365926742554
1738564417.334945,-0.03671019524335861,-0.06648656725883484,-0.29417896270751953,-0.8581300377845764,-0.7930012941360474,0.3847099244594574
1738564417.3538861,-0.07032094895839691,-0.01051880419254303,-0.12548989057540894,-0.875845193862915,-0.8739128708839417,0.13262397050857544
1738564417.373913,-0.032741792500019073,0.0047478824853897095,-0.06284654140472412,-1.113661766052246,-0.6070175766944885,-0.0027255909517407417
1738564417.3940768,0.049622952938079834,0.028753414750099182,-0.08072322607040405,-1.2532918453216553,-0.32449135184288025,0.08488468825817108
1738564417.414182,0.0836784839630127,0.05426628887653351,-0.09574031829833984,-1.285109043121338,-0.24225054681301117,0.25751471519470215
1738564417.4345598,0.01425989717245102,0.03232118487358093,-0.23597556352615356,-0.8760892748832703,-0.14515787363052368,0.2361874133348465
1738564417.4537148,-9.594112634658813e-05,0.003923743963241577,-0.2642318606376648,-0.4647614359855652,-0.19621840119361877,0.13262911140918732
1738564417.47374,0.008816912770271301,0.026088297367095947,-0.20223748683929443,-0.26855090260505676,-0.38944271206855774,0.1477774977684021
1738564417.494812,0.05305538326501846,0.05160074681043625,-0.14741206169128418,-0.22827458381652832,-0.718084990978241,0.3107451796531677
1738564417.513757,0.08302389085292816,0.04096383601427078,-0.12803858518600464,-0.21198658645153046,-0.831745982170105,0.4813934862613678
1738564417.535229,0.08616995066404343,0.03997035324573517,-0.13382399082183838,-0.19395224750041962,-0.5421779751777649,0.5782411694526672
