timestamp,acc_x,acc_y,acc_z,rot_x,rot_y,rot_z
1738565068.432406,0.09735144674777985,-0.040397047996520996,0.026886627078056335,-0.43030691146850586,0.2759113311767578,-0.34450849890708923
1738565068.433261,0.04985349625349045,-0.027086257934570312,-0.0884198546409607,-0.5024094581604004,0.5495107173919678,-0.42679524421691895
1738565068.4338942,0.04978054016828537,-0.0228421688079834,-0.2118390053510666,-0.3533650040626526,0.7673407196998596,-0.5901627540588379
1738565068.452977,0.08966311067342758,0.0056847333908081055,-0.20648767054080963,-0.25995928049087524,0.9314659237861633,-0.6914998292922974
1738565068.4743161,0.18599307537078857,0.04569244384765625,-0.1721438318490982,-0.20333020389080048,1.014757513999939,-0.572661280632019
1738565068.49296,0.27697598934173584,0.10051965713500977,-0.17264245450496674,-0.057137709110975266,0.9214022159576416,-0.24175512790679932
1738565068.514484,0.31465667486190796,0.14794719219207764,-0.156107559800148,0.1341327428817749,0.7303372025489807,0.2032681107521057
1738565068.532969,0.2854159474372864,0.1955680251121521,-0.15231184661388397,0.36012592911720276,0.4212510585784912,0.5816514492034912
1738565068.5529761,0.21201179921627045,0.25169098377227783,-0.11157567799091339,0.4869646728038788,0.22031284868717194,0.7969026565551758
1738565068.5748482,0.1957160234451294,0.27381718158721924,-0.06729188561439514,0.5131204724311829,0.2143852561712265,1.0118591785430908
1738565068.59299,0.20294368267059326,0.3032885789871216,0.010889649391174316,0.365906298160553,0.32546284794807434,1.2933540344238281
1738565068.614399,0.19382573664188385,0.3450021743774414,0.08774460852146149,0.07856599241495132,0.5137138366699219,1.6348822116851807
1738565068.63292,0.17219184339046478,0.3909550905227661,0.09048189222812653,-0.16867931187152863,0.6166641712188721,1.9475922584533691
1738565068.653518,0.16916967928409576,0.4508535861968994,0.11400486528873444,-0.4368799030780792,0.6837502121925354,2.284602403640747
1738565068.673317,0.12007489055395126,0.46442604064941406,0.09657199680805206,-0.5701481103897095,0.4109111726284027,2.5032989978790283
1738565068.693108,0.08228449523448944,0.5054873824119568,0.0688021332025528,-0.5751165151596069,0.006606413517147303,2.7096362113952637
1738565068.7131329,0.1298171728849411,0.5220898389816284,0.10658802092075348,-0.6742549538612366,-0.23971432447433472,3.098827600479126
1738565068.732878,0.13359415531158447,0.5534895062446594,0.14363354444503784,-0.8913534879684448,-0.19107139110565186,3.524770498275757
1738565068.753055,0.011624932289123535,0.5877007246017456,0.14959347248077393,-1.1023204326629639,-0.05463475361466408,3.637936592102051
1738565068.775914,-0.16441380977630615,0.5659410357475281,0.14580020308494568,-1.2855581045150757,-0.03505803272128105,3.279402256011963
1738565068.7929401,-0.18854159116744995,0.5385153889656067,0.187199205160141,-1.5593836307525635,-0.07812055200338364,2.962233543395996
1738565068.812994,-0.14402621984481812,0.5268133282661438,0.1818588674068451,-1.8326884508132935,-0.23560017347335815,2.8881888389587402
1738565068.83286,-0.2189905047416687,0.5412573218345642,0.16777202486991882,-2.0782437324523926,-0.306732714176178,2.6248373985290527
1738565068.852961,-0.2954036593437195,0.549453616142273,0.21836069226264954,-2.4760067462921143,-0.08770482987165451,2.181032180786133
1738565068.875622,-0.2615897059440613,0.5085359215736389,0.2133234441280365,-2.860942840576172,-0.053923770785331726,1.925026774406433
1738565068.893009,-0.24265801906585693,0.4806610941886902,0.2634977698326111,-3.3638477325439453,-0.26692119240760803,1.66451895236969
1738565068.9128351,-0.3070383667945862,0.5097306370735168,0.2977648377418518,-3.942528009414673,-0.36944276094436646,1.3435600996017456
1738565068.9326591,-0.3260812759399414,0.5092159509658813,0.16433459520339966,-4.210589408874512,-0.3420785367488861,1.2392598390579224
1738565068.952822,-0.3728245496749878,0.4665824770927429,-0.12402236461639404,-3.8911406993865967,-0.2549501061439514,1.1980770826339722
1738565068.976311,-0.46452295780181885,0.4031997323036194,-0.22724175453186035,-3.403552770614624,-0.14392665028572083,1.106188416481018
1738565068.992879,-0.5576094388961792,0.3118170499801636,-0.2037142515182495,-3.0840518474578857,-0.3168875277042389,0.9468768239021301
1738565069.012624,-0.6480333209037781,0.286501407623291,-0.09839266538619995,-3.0399205684661865,-0.5694464445114136,0.7627518773078918
1738565069.033018,-0.6988824009895325,0.2959809899330139,-0.004206418991088867,-3.292985200881958,-0.6096791625022888,0.5442629456520081
1738565069.052629,-0.7540855407714844,0.28351303935050964,0.020925164222717285,-3.7026102542877197,-0.1572166085243225,0.19917447865009308
1738565069.074671,-0.8545915484428406,0.26073387265205383,-0.18458032608032227,-3.6305525302886963,0.243757963180542,-0.3810541331768036
1738565069.0928369,-0.8847858905792236,0.2439754754304886,-0.3129490613937378,-3.340913772583008,0.34074583649635315,-0.9773779511451721
1738565069.112973,-0.8103154301643372,0.2671506404876709,-0.24536055326461792,-3.2973339557647705,0.3107888102531433,-1.3838697671890259
1738565069.132743,-0.7637312412261963,0.2796662449836731,-0.19546711444854736,-3.4342403411865234,0.4594598114490509,-1.7776384353637695
1738565069.152567,-0.7407854199409485,0.2926349639892578,-0.1656891107559204,-3.6499242782592773,1.0687057971954346,-2.280142307281494
1738565069.175632,-0.6916357278823853,0.3391711115837097,-0.21746259927749634,-3.6215765476226807,1.5915626287460327,-2.7866573333740234
1738565069.192661,-0.5675467252731323,0.3657178580760956,-0.24727857112884521,-3.348170280456543,1.5812619924545288,-3.101184844970703
1738565069.212679,-0.45995277166366577,0.38094615936279297,-0.17928993701934814,-3.088498830795288,1.2406505346298218,-3.314234495162964
1738565069.232551,-0.4453510046005249,0.3951406180858612,-0.06579124927520752,-3.227243185043335,1.443605661392212,-3.645709991455078
1738565069.252603,-0.4984985589981079,0.447318971157074,-0.03326916694641113,-3.366765022277832,1.9487144947052002,-4.128039360046387
1738565069.2763128,-0.43912601470947266,0.49242061376571655,-0.11580121517181396,-3.191824197769165,1.997422695159912,-4.4952216148376465
1738565069.292357,-0.3394928574562073,0.5262570381164551,-0.17446225881576538,-2.822064161300659,1.7281745672225952,-4.642666339874268
1738565069.312447,-0.3180345892906189,0.4988168478012085,-0.2666369080543518,-2.424004554748535,1.509356141090393,-4.807901859283447
1738565069.332635,-0.3821292817592621,0.557065486907959,-0.25049924850463867,-2.26092529296875,1.7023427486419678,-5.140480041503906
1738565069.352736,-0.29857051372528076,0.6039241552352905,-0.24611473083496094,-2.188169002532959,2.067790985107422,-5.319014549255371
1738565069.3761249,-0.15766575932502747,0.6423786878585815,-0.26554661989212036,-2.073744773864746,2.3058345317840576,-5.2757954597473145
1738565069.3932772,-0.05976635217666626,0.682368278503418,-0.4123377799987793,-1.5557351112365723,1.932257890701294,-5.046872138977051
1738565069.4122639,0.14623838663101196,0.6218438148498535,-0.774827778339386,-0.24670177698135376,0.8070626258850098,-4.443094730377197
1738565069.432344,0.2500297725200653,0.5373022556304932,-1.0285873413085938,1.3367037773132324,-0.24948802590370178,-3.647521495819092
1738565069.451805,0.08718720078468323,0.49304068088531494,-0.9491541981697083,2.4174630641937256,-0.26521822810173035,-3.1923184394836426
1738565069.476121,-0.13741114735603333,0.5433741807937622,-0.5638224482536316,2.559816598892212,0.20774902403354645,-3.2000789642333984
1738565069.493054,-0.18475201725959778,0.598052978515625,-0.325883686542511,2.3076963424682617,0.576909065246582,-3.256361722946167
1738565069.512171,-0.11574175953865051,0.5325490236282349,-0.22338640689849854,1.9761242866516113,0.8657159805297852,-3.246664524078369
1738565069.532063,-0.04341134428977966,0.5107813477516174,-0.17823326587677002,1.5964598655700684,1.276097059249878,-3.0449860095977783
1738565069.552141,-0.06301110982894897,0.48792654275894165,-0.22575652599334717,1.4257118701934814,1.609617829322815,-2.8505260944366455
1738565069.5722442,-0.06798131763935089,0.4709073305130005,-0.33322274684906006,1.594236135482788,1.6945433616638184,-2.61800479888916
1738565069.592058,-0.0402727872133255,0.4423448145389557,-0.4093695282936096,1.9459681510925293,1.7386677265167236,-2.2849390506744385
1738565069.611953,-0.08878125250339508,0.44059786200523376,-0.36128056049346924,2.1371307373046875,1.9223721027374268,-2.028038740158081
1738565069.632143,-0.059049591422080994,0.4343838095664978,-0.23570698499679565,2.0108463764190674,2.2736988067626953,-1.684475064277649
1738565069.652525,-0.00858248770236969,0.4076290726661682,-0.17490142583847046,1.7950830459594727,2.590660810470581,-1.2649867534637451
1738565069.6723099,0.006157323718070984,0.3750342130661011,-0.1669350266456604,1.6076533794403076,2.7895257472991943,-0.7953841090202332
1738565069.692971,-0.09920157492160797,0.37620025873184204,-0.22262895107269287,1.6639772653579712,2.733551025390625,-0.5414515733718872
1738565069.71189,-0.1372280716896057,0.3745917081832886,-0.23723864555358887,1.7390830516815186,2.6457507610321045,-0.3428967595100403
1738565069.7320051,-0.10357993841171265,0.3569633364677429,-0.22362947463989258,1.857452154159546,2.712127447128296,-0.05513044819235802
1738565069.751754,-0.08272397518157959,0.3508561849594116,-0.1829339861869812,1.918846845626831,2.7901523113250732,0.258183091878891
1738565069.771651,-0.11226320266723633,0.3602639436721802,-0.14238834381103516,1.9068834781646729,2.9408271312713623,0.4975757896900177
1738565069.7929301,-0.13758960366249084,0.3513140082359314,-0.13253790140151978,1.941131591796875,3.025463819503784,0.6846700310707092
1738565069.811842,-0.1626926064491272,0.36216604709625244,-0.11337864398956299,2.006321430206299,2.9125068187713623,0.8327057361602783
1738565069.832762,-0.10891950130462646,0.3632514476776123,-0.04412209987640381,2.0172996520996094,2.666055202484131,1.0788559913635254
1738565069.851767,-0.07648688554763794,0.35244327783584595,0.037640392780303955,1.872886300086975,2.4845640659332275,1.3301513195037842
1738565069.871877,-0.09475228190422058,0.36289066076278687,0.12406459450721741,1.4783486127853394,2.6476387977600098,1.549134373664856
1738565069.8916922,-0.17632263898849487,0.3614156246185303,0.11169824004173279,1.10919988155365,2.9258010387420654,1.59818434715271
1738565069.912022,-0.1822870969772339,0.35023778676986694,0.07127916812896729,0.8290989995002747,3.141869068145752,1.6253623962402344
1738565069.931885,-0.09821173548698425,0.3489943742752075,0.060620248317718506,0.5930601358413696,3.3443374633789062,1.8728283643722534
1738565069.95187,-0.10364693403244019,0.3566567301750183,0.0038653165102005005,0.5737420916557312,3.1152596473693848,2.139378070831299
1738565069.971421,-0.1876612901687622,0.34719276428222656,-0.016477584838867188,0.6461676955223083,2.597086191177368,2.229898452758789
1738565069.991366,-0.2748104929924011,0.3381863236427307,-0.004885904490947723,0.6955978870391846,2.255323886871338,2.0865437984466553
1738565070.011489,-0.27490293979644775,0.31853777170181274,-0.026702456176280975,0.7909195423126221,1.9794687032699585,1.9626988172531128
1738565070.0327802,-0.2847369909286499,0.29403436183929443,-0.15193986892700195,1.2186360359191895,1.5300664901733398,1.9020006656646729
1738565070.0515041,-0.21350528299808502,0.27168864011764526,-0.1377115249633789,1.5747342109680176,1.124474287033081,2.074838399887085
1738565070.071537,-0.18015249073505402,0.26432013511657715,0.0074872951954603195,1.5029642581939697,0.9852672219276428,2.2443981170654297
1738565070.09347,-0.29391974210739136,0.25392282009124756,0.1364060640335083,1.0698916912078857,1.1819396018981934,2.121159553527832
1738565070.111546,-0.39718711376190186,0.23004567623138428,0.25359416007995605,0.26529115438461304,1.788961410522461,1.8057990074157715
1738565070.132457,-0.3761110305786133,0.18962472677230835,0.3486372232437134,-0.7464427947998047,2.5503809452056885,1.512752890586853
1738565070.151757,-0.3218335211277008,0.17234903573989868,0.2815786600112915,-1.4834378957748413,2.8987278938293457,1.40672767162323
1738565070.171613,-0.3858288824558258,0.141990065574646,-0.019965289160609245,-1.3500124216079712,2.439549684524536,1.2393056154251099
1738565070.193614,-0.5046382546424866,0.10070127248764038,-0.14137542247772217,-1.0277507305145264,2.0398426055908203,0.8944868445396423
1738565070.21134,-0.5270014405250549,0.06018573045730591,-0.02965724468231201,-1.1218663454055786,2.2356443405151367,0.4788393974304199
1738565070.233155,-0.41997355222702026,0.01965254545211792,0.008781798183918,-1.3279844522476196,2.7534751892089844,0.27028512954711914
