timestamp,acc_x,acc_y,acc_z,rot_x,rot_y,rot_z
1738565062.487977,0.0756281316280365,-0.04865759611129761,-0.030256271362304688,-0.22440636157989502,0.12045860290527344,-0.09182221442461014
1738565062.48885,0.04838468134403229,-0.04050600528717041,-0.12161272764205933,-0.2312694787979126,0.3837057650089264,-0.11767909675836563
1738565062.499804,0.043433696031570435,-0.010020971298217773,-0.12395910918712616,-0.2599099278450012,0.523868203163147,-0.16895906627178192
1738565062.521606,0.07968441396951675,0.020130515098571777,-0.18161484599113464,-0.11725859344005585,0.5544047951698303,-0.18788127601146698
1738565062.539499,0.13454273343086243,0.06376916170120239,-0.23281514644622803,0.1307998150587082,0.6725443601608276,-0.09109038859605789
1738565062.561112,0.23872244358062744,0.10753399133682251,-0.1986064612865448,0.2780856490135193,0.7469646334648132,0.17532901465892792
1738565062.579502,0.30782756209373474,0.1497175097465515,-0.15866969525814056,0.3687341511249542,0.7138571739196777,0.5787786841392517
1738565062.5996819,0.33663803339004517,0.2042129635810852,-0.15279966592788696,0.4877561330795288,0.5815064311027527,1.0484050512313843
1738565062.621628,0.21722441911697388,0.23052936792373657,-0.19918888807296753,0.7728906273841858,0.31868067383766174,1.2531620264053345
1738565062.639687,0.15001529455184937,0.24396222829818726,-0.1725340634584427,0.9689690470695496,0.15784212946891785,1.3440109491348267
1738565062.6595159,0.1851080358028412,0.2749137282371521,-0.03704187273979187,0.861809253692627,0.27921757102012634,1.5888819694519043
1738565062.6796331,0.22960060834884644,0.274017333984375,0.011170342564582825,0.7045303583145142,0.45475247502326965,1.9773857593536377
1738565062.699748,0.2228323519229889,0.30308789014816284,-0.006723582744598389,0.6441614627838135,0.5075225830078125,2.375507116317749
1738565062.722605,0.10324116051197052,0.33245933055877686,-0.04513759911060333,0.7133997678756714,0.3704811930656433,2.463331699371338
1738565062.739873,0.01471923291683197,0.349084734916687,0.06340086460113525,0.5151114463806152,0.27755361795425415,2.2861194610595703
1738565062.7595801,0.021298080682754517,0.3435346484184265,0.201341450214386,0.04164246469736099,0.36293816566467285,2.1370460987091064
1738565062.77957,0.10483589768409729,0.34726130962371826,0.21818719804286957,-0.41678690910339355,0.4453885555267334,2.218364953994751
1738565062.799591,0.10352209210395813,0.36837464570999146,0.15309520065784454,-0.633681058883667,0.36247584223747253,2.399059295654297
1738565062.819597,0.01648089289665222,0.3753471374511719,0.07107967138290405,-0.6237408518791199,0.16668601334095,2.353560447692871
1738565062.83932,-0.055961430072784424,0.3830559253692627,0.09771662950515747,-0.7102168202400208,0.2944263815879822,2.095963716506958
1738565062.859517,-0.004646420478820801,0.37830251455307007,0.16237275302410126,-0.9897148013114929,0.5618183016777039,2.035231113433838
1738565062.879407,0.017256170511245728,0.36862266063690186,0.12618893384933472,-1.1494715213775635,0.6294286847114563,2.176466464996338
1738565062.899487,-0.01620858907699585,0.3685700297355652,0.14179089665412903,-1.3783389329910278,0.6220410466194153,2.251351833343506
1738565062.91981,-0.08905529975891113,0.39153164625167847,0.20655828714370728,-1.768532633781433,0.7363064289093018,2.1441996097564697
1738565062.939605,-0.09661489725112915,0.3632933497428894,0.19460442662239075,-2.0862483978271484,0.7401599287986755,2.0669467449188232
1738565062.959604,-0.13767510652542114,0.3242485523223877,0.07912486791610718,-2.0815951824188232,0.4741179347038269,2.02305269241333
1738565062.9794369,-0.18764936923980713,0.31409353017807007,0.07092490792274475,-2.1017160415649414,0.2741779685020447,1.9204949140548706
1738565062.999299,-0.21679699420928955,0.32295918464660645,0.12494945526123047,-2.236788272857666,0.19784408807754517,1.8254306316375732
1738565063.019446,-0.23341065645217896,0.29321831464767456,0.10652521252632141,-2.316436767578125,-0.017610251903533936,1.7284321784973145
1738565063.0392652,-0.2922695279121399,0.284856379032135,0.08275938034057617,-2.4040257930755615,-0.21364128589630127,1.5540975332260132
1738565063.0592542,-0.36080533266067505,0.3070720434188843,0.10179495811462402,-2.580491542816162,-0.23196850717067719,1.2466975450515747
1738565063.079536,-0.37974727153778076,0.2955080568790436,0.04335775971412659,-2.6620616912841797,-0.2532295286655426,0.9302306175231934
1738565063.0992131,-0.3934692144393921,0.2766682207584381,0.00917583703994751,-2.7747113704681396,-0.2267274111509323,0.671985924243927
1738565063.1230888,-0.42951685190200806,0.2530059218406677,-0.015485644340515137,-2.9261693954467773,-0.18230123817920685,0.5122444033622742
1738565063.139954,-0.49204468727111816,0.233230859041214,-0.03258824348449707,-3.1222896575927734,-0.05008441209793091,0.33662307262420654
1738565063.159529,-0.5395320057868958,0.18367448449134827,-0.06792408227920532,-3.2719669342041016,0.27036944031715393,0.043012186884880066
1738565063.1794271,-0.6072210669517517,0.15908721089363098,-0.1303175687789917,-3.25170636177063,0.5757418274879456,-0.4098498821258545
1738565063.1991858,-0.5912138223648071,0.11883467435836792,-0.15676599740982056,-3.176062822341919,0.6906775236129761,-0.8402540683746338
1738565063.2193022,-0.5429519414901733,0.1391896903514862,-0.10253965854644775,-3.219411849975586,0.8911831974983215,-1.135223388671875
1738565063.239315,-0.5300898551940918,0.15320180356502533,-0.04808008670806885,-3.4199843406677246,1.0770176649093628,-1.4628669023513794
1738565063.259094,-0.5475324392318726,0.16515091061592102,-0.034078240394592285,-3.6684629917144775,1.2265435457229614,-1.9059562683105469
1738565063.278864,-0.5061988830566406,0.19195696711540222,-0.05146288871765137,-3.874645471572876,1.4704400300979614,-2.336754322052002
1738565063.2990608,-0.4428434371948242,0.23541249334812164,-0.0765274167060852,-3.9818992614746094,1.796019434928894,-2.7061572074890137
1738565063.323458,-0.4071321487426758,0.249635249376297,-0.11480426788330078,-3.875173807144165,2.065844774246216,-3.063197612762451
1738565063.340239,-0.37266039848327637,0.2584569752216339,-0.12881410121917725,-3.601421356201172,2.014355182647705,-3.34859561920166
1738565063.359023,-0.2936732769012451,0.28533321619033813,-0.12055861949920654,-3.2655811309814453,1.6387641429901123,-3.4494268894195557
1738565063.379706,-0.28536397218704224,0.295590341091156,-0.09167414903640747,-3.054340124130249,1.2819894552230835,-3.5499703884124756
1738565063.398818,-0.34628477692604065,0.32349079847335815,-0.13262736797332764,-2.8161423206329346,1.103797197341919,-3.728591203689575
1738565063.419147,-0.35071372985839844,0.3252502679824829,-0.17736178636550903,-2.568235158920288,1.0440189838409424,-3.878000497817993
1738565063.439897,-0.3543572723865509,0.33312320709228516,-0.22253280878067017,-2.2855653762817383,1.0005780458450317,-3.9920263290405273
1738565063.458695,-0.37596356868743896,0.36500704288482666,-0.2847657799720764,-1.8958007097244263,0.8753708600997925,-4.201883792877197
1738565063.479219,-0.3357856869697571,0.37984684109687805,-0.3230464458465576,-1.4912755489349365,0.6323887705802917,-4.408843040466309
1738565063.498874,-0.24013736844062805,0.4180188477039337,-0.31206339597702026,-1.1952744722366333,0.5029590129852295,-4.480599880218506
1738565063.51882,-0.16161948442459106,0.43888404965400696,-0.2782368063926697,-1.1119954586029053,0.6256651282310486,-4.417442798614502
1738565063.539613,-0.10384207963943481,0.4485795497894287,-0.3165668249130249,-1.0815402269363403,0.8071164488792419,-4.324367523193359
1738565063.559165,-0.10699242353439331,0.44235044717788696,-0.3611975908279419,-1.0565909147262573,1.1190999746322632,-4.223195552825928
1738565063.578776,-0.14889851212501526,0.43290576338768005,-0.5098350644111633,-0.642247200012207,1.2542368173599243,-4.164877891540527
1738565063.598864,-0.09487932920455933,0.3856710195541382,-0.6371700167655945,0.06387925893068314,1.132730484008789,-4.02153205871582
1738565063.61887,-0.0512620210647583,0.4210417866706848,-0.573743999004364,0.5789573788642883,1.1168965101242065,-3.799070119857788
1738565063.6391659,-0.042621225118637085,0.43873661756515503,-0.4496825337409973,0.8204678297042847,1.2536448240280151,-3.6031572818756104
1738565063.659237,0.0030022114515304565,0.4707965850830078,-0.3616369366645813,0.9259639978408813,1.2896260023117065,-3.320265293121338
1738565063.679424,0.089759960770607,0.45462965965270996,-0.32490551471710205,0.9701974391937256,1.4614577293395996,-2.9062986373901367
1738565063.6986032,0.11820878088474274,0.42580345273017883,-0.29696983098983765,0.9733404517173767,1.823063611984253,-2.43772554397583
1738565063.718467,0.09025218337774277,0.4330996572971344,-0.3459857106208801,1.1458003520965576,1.8758349418640137,-2.052018642425537
1738565063.7385,0.05786341428756714,0.4151153564453125,-0.39402830600738525,1.417596459388733,1.8985552787780762,-1.7204357385635376
1738565063.758595,0.00678812712430954,0.3982551097869873,-0.4001355767250061,1.6663615703582764,2.044422149658203,-1.4665870666503906
1738565063.778284,0.06615440547466278,0.4148135185241699,-0.36199575662612915,1.8313316106796265,2.151280403137207,-1.0427889823913574
1738565063.7985039,0.13669896125793457,0.4218897819519043,-0.3223424553871155,1.9269821643829346,2.2562029361724854,-0.5268195271492004
1738565063.81846,0.04537747800350189,0.45494702458381653,-0.28491008281707764,1.9354528188705444,2.3951942920684814,-0.1405644714832306
1738565063.8385282,-0.07592283189296722,0.4470491409301758,-0.3173428177833557,2.105783462524414,2.4326303005218506,-0.019955744966864586
1738565063.858459,-0.09525623917579651,0.43638545274734497,-0.3264954686164856,2.3724524974823,2.371910333633423,0.09523308277130127
1738565063.87867,-0.046862900257110596,0.4468994736671448,-0.271517813205719,2.594519853591919,2.337013006210327,0.3451424539089203
1738565063.8986568,-0.041264742612838745,0.4511668086051941,-0.20233100652694702,2.7311453819274902,2.3599557876586914,0.5905778408050537
1738565063.918253,-0.0772293210029602,0.476550817489624,-0.11859822273254395,2.6986517906188965,2.4106907844543457,0.7894768714904785
1738565063.9397368,-0.08005338907241821,0.4630054235458374,-0.06797921657562256,2.6303958892822266,2.445952892303467,0.9902210831642151
1738565063.95837,-0.044746845960617065,0.46390658617019653,-0.016583561897277832,2.5271265506744385,2.4646618366241455,1.245624303817749
1738565063.9792151,-0.0022804439067840576,0.4564383029937744,0.045688509941101074,2.30682373046875,2.4548370838165283,1.5511101484298706
1738565063.998814,-0.028577297925949097,0.4532189965248108,0.0560302734375,2.138484001159668,2.4298229217529297,1.8176803588867188
1738565064.018197,-0.10493361949920654,0.4593814015388489,0.030175119638442993,2.0969722270965576,2.3618781566619873,1.9315840005874634
1738565064.038158,-0.09625944495201111,0.435857355594635,0.06245294213294983,1.9687845706939697,2.277552604675293,2.0821402072906494
1738565064.0582728,-0.09320926666259766,0.4218231439590454,0.07685497403144836,1.7508035898208618,2.2202224731445312,2.2621307373046875
1738565064.079843,-0.1935945451259613,0.42025208473205566,0.043195873498916626,1.6118783950805664,2.22931170463562,2.2623345851898193
1738565064.098102,-0.25945961475372314,0.38583290576934814,0.012500792741775513,1.5666850805282593,2.210019826889038,2.1149649620056152
1738565064.118376,-0.22305315732955933,0.356805682182312,0.05898985266685486,1.4179500341415405,2.190857172012329,2.085075855255127
1738565064.140603,-0.13258662819862366,0.3212229609489441,0.10095353424549103,1.1649118661880493,2.1307156085968018,2.2417681217193604
1738565064.157826,-0.1599075049161911,0.32409822940826416,0.11269964277744293,0.8880231380462646,2.1013598442077637,2.3797593116760254
1738565064.1795769,-0.28989773988723755,0.28215914964675903,0.10247713327407837,0.7456435561180115,1.6436761617660522,2.158202648162842
1738565064.197923,-0.3136600852012634,0.2428799271583557,0.09598201513290405,0.6823725700378418,1.267326831817627,1.9418264627456665
1738565064.217927,-0.2089187204837799,0.2511637210845947,0.12226761877536774,0.4872529208660126,1.3145976066589355,2.0254223346710205
1738565064.2402592,-0.24653585255146027,0.24709159135818481,0.07844090461730957,0.33984261751174927,1.6701488494873047,2.0119988918304443
1738565064.257921,-0.34810787439346313,0.21218878030776978,0.0324244499206543,0.2666222155094147,2.006431818008423,1.7922735214233398
1738565064.2781,-0.3378097116947174,0.20069372653961182,0.08222228288650513,0.10079421103000641,2.21132755279541,1.6386165618896484
1738565064.298769,-0.29080843925476074,0.18670880794525146,0.05564910173416138,0.034641116857528687,2.1466853618621826,1.6175782680511475
1738565064.318052,-0.3354916572570801,0.16240954399108887,0.03173750638961792,-0.004374537151306868,1.9123033285140991,1.412532091140747
1738565064.339123,-0.386051207780838,0.1233862042427063,0.043056704103946686,-0.10471126437187195,1.82816743850708,1.0840144157409668
1738565064.358018,-0.2856801450252533,0.0953289270401001,0.04998224973678589,-0.30232226848602295,1.8467724323272705,1.019850254058838
1738565064.380052,-0.1813896894454956,0.10066837072372437,0.0906241163611412,-0.620063841342926,1.9785399436950684,1.2207121849060059
1738565064.397979,-0.26934993267059326,0.0882226824760437,0.007640913128852844,-0.734464168548584,1.9018174409866333,1.1278703212738037
1738565064.417836,-0.4544442594051361,0.04491865634918213,-0.06282787024974823,-0.6654833555221558,1.6660351753234863,0.5494515895843506
