timestamp,acc_x,acc_y,acc_z,rot_x,rot_y,rot_z
1738565101.439282,-0.1132366806268692,-0.13081353902816772,-0.2825103998184204,0.03749895095825195,0.04585118591785431,-0.6519373655319214
1738565101.439777,-0.08209574222564697,-0.09635955095291138,-0.34296542406082153,0.117890365421772,0.37629806995391846,-0.8669100999832153
1738565101.4519858,-0.006086885929107666,-0.06226629018783569,-0.3257337212562561,0.162460058927536,0.7365159392356873,-0.9572837352752686
1738565101.474114,0.07633915543556213,-0.006019115447998047,-0.3154987692832947,0.18851719796657562,0.9846029281616211,-0.9012935757637024
1738565101.492041,0.14423638582229614,0.04386639595031738,-0.33683067560195923,0.31356149911880493,1.0255976915359497,-0.755483090877533
1738565101.512192,0.20741605758666992,0.0913514494895935,-0.319108247756958,0.4541900157928467,0.9635981321334839,-0.5362817645072937
1738565101.531852,0.23562473058700562,0.17185604572296143,-0.29012954235076904,0.5734172463417053,0.9374682307243347,-0.27150851488113403
1738565101.551807,0.25540149211883545,0.21105670928955078,-0.2474338561296463,0.6406846642494202,0.9485144019126892,0.017246175557374954
1738565101.574389,0.2753727436065674,0.26127856969833374,-0.2191799283027649,0.6784098148345947,0.939914882183075,0.3577021062374115
1738565101.591792,0.2731022536754608,0.3103318214416504,-0.21357882022857666,0.7984667420387268,0.8319084644317627,0.7108897566795349
1738565101.611906,0.2818923592567444,0.3521747589111328,-0.18080765008926392,0.9326063394546509,0.6204819083213806,1.1279006004333496
1738565101.631769,0.30520105361938477,0.3739559054374695,-0.13529831171035767,1.0444108247756958,0.3372889757156372,1.5875452756881714
1738565101.6519542,0.31680405139923096,0.41754448413848877,-0.00028205104172229767,0.8969500064849854,0.24515193700790405,2.1134958267211914
1738565101.675517,0.2958710789680481,0.4455382823944092,0.09729373455047607,0.5014674067497253,0.39641833305358887,2.6711626052856445
1738565101.691865,0.20944546163082123,0.5073556303977966,0.10720634460449219,0.11672920733690262,0.533702552318573,3.1104848384857178
1738565101.712076,0.07448147237300873,0.5363848805427551,0.08187627792358398,-0.14624252915382385,0.5817174315452576,3.290879487991333
1738565101.7327042,-0.055805981159210205,0.5439150929450989,0.053127288818359375,-0.26460129022598267,0.446195513010025,3.1959338188171387
1738565101.751935,-0.13859882950782776,0.5323699116706848,0.06438100337982178,-0.3327201306819916,0.3094010353088379,2.939833641052246
1738565101.775562,-0.09329253435134888,0.5505452156066895,0.1234351396560669,-0.5396591424942017,0.3539663255214691,2.8118443489074707
1738565101.7927098,-0.03439837694168091,0.5799911022186279,0.18887704610824585,-0.910736620426178,0.543476402759552,2.791994094848633
1738565101.8117151,0.02101913094520569,0.5722187757492065,0.16740745306015015,-1.2832105159759521,0.6078241467475891,3.001920223236084
1738565101.831886,-0.06907525658607483,0.5709723234176636,0.08710301667451859,-1.378759741783142,0.22692172229290009,3.110175371170044
1738565101.851702,-0.20976057648658752,0.5689605474472046,0.09161768853664398,-1.4012720584869385,-0.11332875490188599,2.8829731941223145
1738565101.871557,-0.2148108184337616,0.5507451891899109,0.1963648796081543,-1.6897209882736206,0.041969627141952515,2.5029404163360596
1738565101.892123,-0.06575006246566772,0.5356560349464417,0.25770437717437744,-2.277904748916626,0.4901602268218994,2.5081160068511963
1738565101.912082,-0.017209887504577637,0.5775931477546692,0.16178740561008453,-2.7045094966888428,0.6638506054878235,2.806117534637451
1738565101.9327579,-0.2133086919784546,0.5644928216934204,0.009702473878860474,-2.7292118072509766,0.3961409628391266,2.700617790222168
1738565101.951929,-0.3827904462814331,0.5200984477996826,-0.027881324291229248,-2.6675963401794434,0.10711188614368439,2.1294500827789307
1738565101.976019,-0.2920125126838684,0.49677205085754395,0.015522152185440063,-2.8465235233306885,0.0212809219956398,1.8371447324752808
1738565101.993011,-0.24032270908355713,0.5363187789916992,0.024693608283996582,-3.2190208435058594,0.13739779591560364,1.855833649635315
1738565102.011678,-0.3233320116996765,0.5518091917037964,-0.09768375754356384,-3.3821089267730713,0.28101247549057007,1.771667242050171
1738565102.031497,-0.3635244369506836,0.5127429962158203,-0.1827716827392578,-3.2833962440490723,0.15854403376579285,1.5998592376708984
1738565102.051557,-0.379535436630249,0.5089719295501709,-0.1972833275794983,-3.1348114013671875,-0.15942518413066864,1.4496068954467773
1738565102.07148,-0.40846383571624756,0.5167767405509949,-0.1620868444442749,-3.1120126247406006,-0.37119218707084656,1.2600631713867188
1738565102.092372,-0.42274099588394165,0.5445168018341064,-0.16452562808990479,-3.208430290222168,-0.44875043630599976,1.205500602722168
1738565102.1117702,-0.5122851729393005,0.5713377594947815,-0.25175583362579346,-3.137676954269409,-0.6711485385894775,1.2347878217697144
1738565102.133004,-0.6519003510475159,0.5001876354217529,-0.31020617485046387,-2.915839910507202,-0.9557650089263916,1.152572512626648
1738565102.151669,-0.7304900884628296,0.46889975666999817,-0.2680845260620117,-2.6968305110931396,-1.059979796409607,0.929440975189209
1738565102.17167,-0.7493492364883423,0.45502787828445435,-0.12617003917694092,-2.721526861190796,-0.8457973003387451,0.6017252206802368
1738565102.193269,-0.7113128304481506,0.45155012607574463,0.01213008165359497,-3.0006728172302246,-0.3840334415435791,0.2093518078327179
1738565102.211535,-0.6391913890838623,0.48895058035850525,0.1150813102722168,-3.524679660797119,0.06314735859632492,-0.21294312179088593
1738565102.232419,-0.7271919846534729,0.4956986904144287,-0.013133645057678223,-3.849679946899414,0.3014413118362427,-0.8593483567237854
1738565102.25126,-0.7481536269187927,0.45795828104019165,-0.1755853295326233,-3.7944753170013428,0.28242483735084534,-1.7375842332839966
1738565102.271486,-0.6232834458351135,0.5420023798942566,-0.1883469820022583,-3.7697789669036865,0.3820904493331909,-2.289489269256592
1738565102.291594,-0.4776045083999634,0.588374137878418,-0.17940670251846313,-3.8155927658081055,0.6650592088699341,-2.4886794090270996
1738565102.3112779,-0.4902147054672241,0.6044412851333618,-0.17775940895080566,-3.9667508602142334,1.138205885887146,-2.7797694206237793
1738565102.331057,-0.5520177483558655,0.6064363121986389,-0.2676392197608948,-3.9723057746887207,1.503650188446045,-3.3633458614349365
1738565102.350913,-0.5181582570075989,0.6426312923431396,-0.33822864294052124,-3.808799982070923,1.806520938873291,-3.977797031402588
1738565102.3708858,-0.4339202046394348,0.6860175728797913,-0.3449837565422058,-3.6345865726470947,2.0145740509033203,-4.39933967590332
1738565102.391049,-0.37907058000564575,0.6710658073425293,-0.4442365765571594,-3.308371067047119,2.031343698501587,-4.727266311645508
1738565102.411092,-0.3649258613586426,0.6631021499633789,-0.5349185466766357,-2.8308396339416504,2.157428503036499,-5.032907009124756
1738565102.4310532,-0.33869004249572754,0.6451263427734375,-0.5435514450073242,-2.3891804218292236,2.155909299850464,-5.360156059265137
1738565102.450935,-0.42768508195877075,0.6147136688232422,-0.6685574650764465,-1.8002896308898926,1.9263660907745361,-5.779306411743164
1738565102.470556,-0.633272647857666,0.6122769117355347,-0.7980698347091675,-0.7982361912727356,1.5331196784973145,-6.528005599975586
1738565102.490501,-0.5619980692863464,0.7266451120376587,-0.7714262008666992,0.13661791384220123,0.3897443413734436,-7.252727508544922
1738565102.5109348,-0.02260291576385498,0.8424892425537109,-0.7482443451881409,0.6306816935539246,-0.5759756565093994,-6.850827217102051
1738565102.530869,0.2827942669391632,0.6919978857040405,-0.7895810008049011,1.0868167877197266,0.007407570257782936,-5.688841342926025
1738565102.550983,0.3238511085510254,0.5981470346450806,-0.5563163757324219,1.0953238010406494,0.9875551462173462,-4.545655727386475
1738565102.570837,0.1412166953086853,0.555012583732605,-0.3988761901855469,0.8554931282997131,1.4597256183624268,-3.7470550537109375
1738565102.590884,-0.07320362329483032,0.4856598973274231,-0.40472012758255005,0.7317149639129639,1.6523481607437134,-3.384164810180664
1738565102.6111479,-0.14790986478328705,0.4146963953971863,-0.5024462342262268,0.929319441318512,1.838104486465454,-3.1335082054138184
1738565102.6333709,-0.19632187485694885,0.38354313373565674,-0.5694181323051453,1.400802731513977,2.0631895065307617,-2.9061033725738525
1738565102.650871,-0.21907010674476624,0.40469932556152344,-0.5129429697990417,1.8616312742233276,2.278813600540161,-2.6898512840270996
1738565102.6708899,-0.14188864827156067,0.44516390562057495,-0.37404167652130127,2.0884623527526855,2.4907398223876953,-2.369366407394409
1738565102.693193,-0.129868283867836,0.4281073808670044,-0.23102736473083496,1.8689098358154297,2.703685760498047,-1.945753574371338
1738565102.710782,-0.20718680322170258,0.4336814284324646,-0.20571482181549072,1.6655642986297607,2.9282615184783936,-1.7035835981369019
1738565102.730789,-0.2084910273551941,0.43039846420288086,-0.2032659649848938,1.5378700494766235,3.093611478805542,-1.4940764904022217
1738565102.751025,-0.20159918069839478,0.41801297664642334,-0.19907385110855103,1.5092754364013672,3.2593350410461426,-1.2301974296569824
1738565102.770691,-0.20036309957504272,0.3994866609573364,-0.169023334980011,1.4790170192718506,3.4409995079040527,-0.9790806770324707
1738565102.7914062,-0.1757664680480957,0.42172402143478394,-0.13960862159729004,1.4546306133270264,3.6026923656463623,-0.7015906572341919
1738565102.8109689,-0.053399235010147095,0.42155730724334717,-0.0836450457572937,1.396287202835083,3.682640790939331,-0.20488353073596954
1738565102.833856,-0.03535681962966919,0.41836535930633545,-0.10554191470146179,1.4311683177947998,3.4983294010162354,0.42426443099975586
1738565102.850706,-0.12028756737709045,0.4268299341201782,-0.18080925941467285,1.8080092668533325,3.049302577972412,0.9048051238059998
1738565102.870646,-0.23343119025230408,0.44063055515289307,-0.13745629787445068,2.138906478881836,2.6402130126953125,1.1240172386169434
1738565102.893163,-0.24494457244873047,0.44711947441101074,-0.039033740758895874,2.1605024337768555,2.5703248977661133,1.2626686096191406
1738565102.91067,-0.20988082885742188,0.42225247621536255,0.04651474952697754,2.0017271041870117,2.74625301361084,1.4330127239227295
1738565102.93066,-0.26407650113105774,0.3938290476799011,0.14259731769561768,1.5389360189437866,2.9205241203308105,1.4450582265853882
1738565102.95055,-0.3421638607978821,0.4025581479072571,0.10782921314239502,1.187741994857788,2.9461450576782227,1.3131898641586304
1738565102.9704828,-0.4405708312988281,0.3770262598991394,-0.017785310745239258,1.2869477272033691,2.7225325107574463,0.9690252542495728
1738565102.992982,-0.4169992506504059,0.32795000076293945,-0.14178931713104248,1.921854853630066,2.3316545486450195,0.6238383054733276
1738565103.010429,-0.36159950494766235,0.3413647413253784,0.0091477632522583,2.222625494003296,2.256239652633667,0.4161505103111267
1738565103.0304,-0.20586660504341125,0.3034211993217468,0.17532899975776672,1.900590419769287,2.5443334579467773,0.5398141741752625
1738565103.050336,-0.09890544414520264,0.2462482452392578,0.3380674123764038,1.0129491090774536,3.0063915252685547,0.7922410368919373
1738565103.0707312,-0.0899403989315033,0.1929733157157898,0.38770294189453125,-0.2528069019317627,3.2261056900024414,1.1065348386764526
1738565103.0906482,-0.31057238578796387,0.1920122504234314,0.054001569747924805,-0.7920175194740295,2.479506254196167,0.9875611066818237
1738565103.110625,-0.3374766707420349,0.13607800006866455,-0.1621960550546646,-0.6041451692581177,1.515866756439209,0.7207088470458984
1738565103.130398,-0.19310861825942993,0.10956054925918579,-0.06904388964176178,-0.6600693464279175,1.6686352491378784,0.873260498046875
1738565103.1502872,-0.15750420093536377,0.0724441409111023,-0.01938450336456299,-1.038078784942627,2.294962167739868,1.194921851158142
1738565103.170294,-0.39347854256629944,0.046332597732543945,-0.15272130072116852,-1.1620746850967407,2.424394369125366,1.137094259262085
1738565103.1932302,-0.5478086471557617,0.019590556621551514,-0.26852548122406006,-0.825981616973877,2.13104248046875,0.6512251496315002
1738565103.210213,-0.46848082542419434,0.0013772845268249512,-0.21125292778015137,-0.5655134320259094,2.234049081802368,0.36146780848503113
1738565103.2302241,-0.46761834621429443,-0.033704161643981934,-0.07589685916900635,-0.5609982013702393,2.48513126373291,0.020425664260983467
1738565103.250231,-0.4650470018386841,-0.05027121305465698,-0.051547735929489136,-0.6931874752044678,2.3468780517578125,-0.36504125595092773
1738565103.270103,-0.4464157223701477,-0.06402242183685303,-0.18438471853733063,-0.5887605547904968,2.360567569732666,-0.7475651502609253
1738565103.2932858,-0.24728162586688995,-0.10060793161392212,-0.17817284166812897,-0.5116105675697327,2.063077926635742,-0.6889489889144897
