timestamp,acc_x,acc_y,acc_z,rot_x,rot_y,rot_z
1738565240.5539489,0.045303672552108765,-0.07574629783630371,0.019609391689300537,-0.11861962080001831,-0.4572715163230896,0.03933752700686455
1738565240.55479,0.033336982131004333,-0.05894535779953003,-0.27407655119895935,0.07136661559343338,-1.0779955387115479,0.32292765378952026
1738565240.555543,-0.012471318244934082,-0.09273737668991089,-0.46206825971603394,0.6554401516914368,-1.446041464805603,0.40604689717292786
1738565240.578788,-0.13179253041744232,-0.09062492847442627,-0.42835333943367004,1.0775082111358643,-1.2272075414657593,0.06922981888055801
1738565240.5959291,-0.09178802371025085,-0.10449790954589844,-0.2655103802680969,0.9639999270439148,-0.4415064752101898,-0.40089595317840576
1738565240.6158109,0.05549195408821106,-0.09051614999771118,-0.22410738468170166,0.7346409559249878,0.4741341769695282,-0.6249975562095642
1738565240.63586,0.2161790430545807,-0.05236619710922241,-0.20891103148460388,0.622793436050415,0.953108012676239,-0.5181164741516113
1738565240.655704,0.2960679233074188,-0.015439867973327637,-0.17345184087753296,0.5895219445228577,0.9695153832435608,-0.203487828373909
1738565240.679019,0.28024110198020935,0.020712316036224365,-0.15996772050857544,0.6301558017730713,0.7598016858100891,0.07318247854709625
1738565240.696398,0.20523664355278015,0.051170408725738525,-0.13346004486083984,0.7272443771362305,0.5500667095184326,0.1643298864364624
1738565240.715899,0.21524658799171448,0.09086179733276367,-0.1073489785194397,0.8568738698959351,0.3518453538417816,0.2097472846508026
1738565240.735958,0.2862447500228882,0.1436077356338501,-0.006916165351867676,0.8595479726791382,0.32450953125953674,0.4396122395992279
1738565240.755756,0.3283228278160095,0.20717012882232666,0.07951474189758301,0.778662919998169,0.20952773094177246,0.7667598128318787
1738565240.775614,0.3660655617713928,0.25145095586776733,0.13236641883850098,0.7058956027030945,-0.030049052089452744,1.1205172538757324
1738565240.796019,0.43637582659721375,0.3203577399253845,0.17904767394065857,0.599302351474762,-0.16629533469676971,1.5877550840377808
1738565240.815783,0.4914828836917877,0.38342297077178955,0.22670406103134155,0.3566504120826721,-0.03795607388019562,2.1772043704986572
1738565240.8367271,0.48092490434646606,0.473580539226532,0.20117983222007751,0.13730594515800476,0.17959395051002502,2.7165026664733887
1738565240.855984,0.43593084812164307,0.5980187654495239,0.2130604386329651,-0.09329463541507721,0.152527317404747,3.2112607955932617
1738565240.879478,0.35394638776779175,0.6672711968421936,0.214173823595047,-0.18412640690803528,-0.2032908797264099,3.631518840789795
1738565240.895967,0.30739641189575195,0.694474995136261,0.2787104845046997,-0.3674129545688629,-0.7672894597053528,3.9876160621643066
1738565240.915852,0.2463974952697754,0.747628927230835,0.28041303157806396,-0.575707733631134,-0.8842422962188721,4.312175750732422
1738565240.9363298,0.16689199209213257,0.8281675577163696,0.3580365777015686,-1.0099869966506958,-0.21289697289466858,4.5757927894592285
1738565240.955658,0.1020544171333313,0.9154508113861084,0.4410770535469055,-1.8114715814590454,0.8384430408477783,4.697242259979248
1738565240.975496,-0.03769129514694214,0.9988346099853516,0.25349894165992737,-2.296576499938965,1.263198971748352,4.730802059173584
1738565240.9963322,-0.242637038230896,0.9574924111366272,0.13336655497550964,-2.1681673526763916,0.9199312925338745,4.4383320808410645
1738565241.0156221,-0.339857816696167,0.9080796837806702,0.2585113048553467,-2.0773496627807617,0.3599277138710022,4.039902687072754
1738565241.036201,-0.26576167345046997,0.9004139304161072,0.5046785473823547,-2.5977487564086914,0.06604558974504471,3.7617859840393066
1738565241.055737,-0.18582457304000854,0.9430130124092102,0.4160977303981781,-3.099844217300415,-0.06813164800405502,3.7958738803863525
1738565241.075638,-0.2726302742958069,0.9756864309310913,0.1960851550102234,-3.1812562942504883,-0.12283404916524887,3.8617372512817383
1738565241.095983,-0.46611160039901733,0.8764277696609497,0.09271934628486633,-3.0565481185913086,-0.29078614711761475,3.567789077758789
1738565241.11552,-0.5932375192642212,0.7923749685287476,0.14765650033950806,-3.146724224090576,-0.40539297461509705,3.0431466102600098
1738565241.136691,-0.6067920327186584,0.8344211578369141,0.1200973391532898,-3.3943729400634766,-0.3936401605606079,2.683227300643921
1738565241.155319,-0.6915848255157471,0.8164423704147339,-0.07793086767196655,-3.2916438579559326,-0.3442429006099701,2.355689287185669
1738565241.175283,-0.7591784596443176,0.7442569732666016,-0.07060819864273071,-3.1887245178222656,-0.0015066759660840034,1.9445134401321411
1738565241.196629,-0.8251442313194275,0.6793069839477539,-0.010244965553283691,-3.181713819503784,0.3413423001766205,1.3523504734039307
1738565241.2156138,-0.8625415563583374,0.6738842725753784,0.028324484825134277,-3.3352012634277344,0.668495774269104,0.725751519203186
1738565241.236295,-0.8941998481750488,0.6448549032211304,0.031551361083984375,-3.5649847984313965,1.1576653718948364,0.0045472485944628716
1738565241.2551289,-0.853123128414154,0.6217080354690552,-0.06131565570831299,-3.567004680633545,1.7125076055526733,-0.7142407298088074
1738565241.2751079,-0.7277331352233887,0.6140255928039551,-0.036529600620269775,-3.5459330081939697,2.06080961227417,-1.2852518558502197
1738565241.295062,-0.612779974937439,0.6242048144340515,-0.002045154571533203,-3.549504518508911,2.20108699798584,-1.756163239479065
1738565241.3154368,-0.537350058555603,0.6062973737716675,0.011520802974700928,-3.607261896133423,2.3944365978240967,-2.2585337162017822
1738565241.3371549,-0.4774041175842285,0.6123771071434021,-0.06321871280670166,-3.6367807388305664,2.623370409011841,-2.8342580795288086
1738565241.355322,-0.3552989959716797,0.6330603361129761,-0.17653882503509521,-3.471224308013916,2.4737064838409424,-3.1815292835235596
1738565241.375025,-0.29441094398498535,0.625098466873169,-0.24361515045166016,-3.2075719833374023,2.2028632164001465,-3.364229440689087
1738565241.397143,-0.3011488914489746,0.5664473176002502,-0.2784850001335144,-2.9352798461914062,1.824501872062683,-3.651148557662964
1738565241.4150028,-0.3560532331466675,0.553691565990448,-0.37742769718170166,-2.664748191833496,1.4110409021377563,-4.055319309234619
1738565241.4366112,-0.3686106204986572,0.5719493627548218,-0.5350700616836548,-2.2879254817962646,1.2549494504928589,-4.444661617279053
1738565241.455085,-0.27966827154159546,0.5383485555648804,-0.6829524040222168,-1.7891100645065308,1.5080461502075195,-4.732922077178955
1738565241.475014,-0.1431865096092224,0.517474889755249,-0.7873554229736328,-1.2196602821350098,2.0643138885498047,-4.859325408935547
1738565241.4953609,-0.07170182466506958,0.47159281373023987,-0.7919608354568481,-0.6106070876121521,2.191183567047119,-4.876750469207764
1738565241.514885,-0.19371366500854492,0.42701804637908936,-0.7421066761016846,0.00036289263516664505,1.722564697265625,-5.10197639465332
1738565241.536108,-0.1403699517250061,0.48966026306152344,-0.7295870184898376,0.49826574325561523,0.9565189480781555,-5.253461837768555
1738565241.554789,0.06001371145248413,0.5018368363380432,-0.781010627746582,1.0844022035598755,0.7896106243133545,-4.930716037750244
1738565241.575056,0.13615214824676514,0.4953470826148987,-0.6136675477027893,1.3060333728790283,1.312801480293274,-4.5456767082214355
1738565241.5962029,0.09503281116485596,0.4803478419780731,-0.4768310785293579,1.221582293510437,1.9328826665878296,-4.366763591766357
1738565241.6155992,0.024094432592391968,0.4826090633869171,-0.5088356137275696,1.2725403308868408,2.384873390197754,-4.206820487976074
1738565241.63736,0.03180813789367676,0.48721742630004883,-0.6267673373222351,1.8015655279159546,2.2643327713012695,-3.9664177894592285
1738565241.6547909,0.13761472702026367,0.45730459690093994,-0.6278836727142334,2.4606430530548096,2.1787054538726807,-3.7066609859466553
1738565241.6747642,0.1874246597290039,0.5275861024856567,-0.43857795000076294,2.65810227394104,2.6509180068969727,-3.259370803833008
1738565241.6969671,0.13974809646606445,0.5719546675682068,-0.31791454553604126,2.5439960956573486,2.9968841075897217,-2.6881895065307617
1738565241.714692,0.06651360541582108,0.560545027256012,-0.29433953762054443,2.46004581451416,3.1624562740325928,-2.2510569095611572
1738565241.736493,0.030193492770195007,0.5666443705558777,-0.27388834953308105,2.376209259033203,3.262763261795044,-1.8554999828338623
1738565241.754733,0.0013820081949234009,0.5538964867591858,-0.2620891332626343,2.386613607406616,3.394326686859131,-1.539729118347168
1738565241.7747068,0.02861875295639038,0.5593827962875366,-0.21516454219818115,2.492034912109375,3.4629387855529785,-1.1852061748504639
1738565241.7968411,0.09667213261127472,0.5557646155357361,-0.10191649198532104,2.4977176189422607,3.3887546062469482,-0.734937310218811
1738565241.814886,0.12526676058769226,0.5514082908630371,-0.051702797412872314,2.462904453277588,3.047384023666382,-0.19265034794807434
1738565241.8347812,0.01664552092552185,0.560494601726532,-0.029239237308502197,2.4160642623901367,2.778212547302246,0.27887868881225586
1738565241.854486,-0.03525993227958679,0.4892987608909607,0.003025829792022705,2.302445411682129,2.753020763397217,0.5789949893951416
1738565241.8746362,-0.05569016933441162,0.4501286745071411,0.06415653228759766,2.173109769821167,3.084897518157959,0.7573321461677551
1738565241.8945441,-0.0194760262966156,0.42352598905563354,0.22329282760620117,1.7278517484664917,3.785109519958496,0.988359808921814
1738565241.914418,-0.004956632852554321,0.44248688220977783,0.26447346806526184,1.0656410455703735,4.162575721740723,1.3436131477355957
1738565241.934396,-0.08946007490158081,0.44674086570739746,0.08286970853805542,0.8476287722587585,3.843593120574951,1.6869666576385498
1738565241.9544048,-0.16323286294937134,0.3887667655944824,-0.02924203872680664,1.0801796913146973,3.107543468475342,1.7493380308151245
1738565241.9744701,-0.2155679166316986,0.35990285873413086,-0.015622615814208984,1.306762456893921,2.38071870803833,1.6856281757354736
1738565241.996922,-0.16954576969146729,0.3393268585205078,0.08797650039196014,1.2570562362670898,2.2044596672058105,1.726599097251892
1738565242.014404,-0.08552280068397522,0.32295292615890503,0.21040689945220947,0.7646633982658386,2.5861783027648926,2.0011837482452393
1738565242.036605,-0.14352120459079742,0.37002408504486084,0.32520592212677,0.0497518889605999,2.359677791595459,2.4995503425598145
1738565242.054548,-0.3986133337020874,0.3039972186088562,0.46621692180633545,-0.7509594559669495,1.2126339673995972,2.430563449859619
1738565242.074333,-0.5228960514068604,0.14798277616500854,0.45763885974884033,-1.624634861946106,0.6440656185150146,1.7051036357879639
1738565242.096538,-0.5432978868484497,0.22745883464813232,0.2698216438293457,-2.182166814804077,1.420357346534729,1.1418702602386475
1738565242.1142411,-0.5865595936775208,0.1764979362487793,-0.005154594779014587,-2.1633169651031494,2.2426650524139404,0.6885996460914612
1738565242.1342158,-0.5563952326774597,0.08299499750137329,-0.12619125843048096,-1.7511723041534424,2.2456095218658447,0.24564647674560547
1738565242.154288,-0.46649616956710815,0.0715864896774292,-0.042987823486328125,-1.473613977432251,1.6413630247116089,0.25774723291397095
1738565242.174559,-0.46585097908973694,0.040049731731414795,-0.07012836635112762,-1.2561331987380981,0.840229868888855,0.2934441566467285
1738565242.194212,-0.44960662722587585,0.016161322593688965,-0.12075993418693542,-0.9192975759506226,0.6483657956123352,0.21998494863510132
1738565242.214083,-0.34702831506729126,0.04859590530395508,-0.017955541610717773,-0.969059407711029,0.8699082732200623,0.24829383194446564
1738565242.234261,-0.2822497487068176,0.05076909065246582,-0.15298107266426086,-0.872251570224762,1.10936439037323,0.41703152656555176
1738565242.254125,-0.3786654770374298,0.021306216716766357,-0.3195750415325165,-0.43290776014328003,1.0227999687194824,0.3102439045906067
1738565242.2743921,-0.4505971670150757,-0.027858436107635498,-0.27377620339393616,-0.12678107619285583,0.29468265175819397,-0.10998961329460144
