timestamp,acc_x,acc_y,acc_z,rot_x,rot_y,rot_z
1738565225.6771421,0.0011927783489227295,-0.04707539081573486,0.07303929328918457,-0.12640094757080078,-0.24623757600784302,-0.13332851231098175
1738565225.677966,-0.10029800236225128,0.03497368097305298,-0.15084609389305115,-0.24476321041584015,0.2094089686870575,-0.22117573022842407
1738565225.682512,-0.02604253590106964,-0.010667264461517334,-0.3228531777858734,0.10918132960796356,0.40618592500686646,-0.3097732365131378
1738565225.704776,0.11115320026874542,-0.006489157676696777,-0.3439779579639435,0.4758836627006531,0.2630062401294708,-0.22372393310070038
1738565225.722375,0.1867981255054474,0.024562358856201172,-0.2896866202354431,0.7161095142364502,0.25067564845085144,-0.06872967630624771
1738565225.744211,0.222054123878479,0.06699645519256592,-0.22430050373077393,0.7958337068557739,0.4487706422805786,0.07031155377626419
1738565225.762471,0.268656849861145,0.0978274941444397,-0.16709521412849426,0.775880753993988,0.710322916507721,0.30499133467674255
1738565225.782796,0.26090338826179504,0.12045049667358398,-0.13308250904083252,0.7499737739562988,0.6929994225502014,0.5797250866889954
1738565225.8049312,0.22998394072055817,0.15145868062973022,-0.07112178206443787,0.6978352665901184,0.375293105840683,0.7821693420410156
1738565225.82285,0.2256776988506317,0.16588431596755981,-0.03849589824676514,0.6528993844985962,0.05110657587647438,0.9930511116981506
1738565225.843,0.22442294657230377,0.19752377271652222,-0.011018604040145874,0.6225359439849854,-0.06834062933921814,1.2346338033676147
1738565225.862588,0.22290313243865967,0.24162858724594116,0.02022165060043335,0.5422617197036743,-0.021185370162129402,1.4927951097488403
1738565225.88259,0.20151680707931519,0.30037617683410645,0.09941717982292175,0.37895381450653076,0.3387722671031952,1.7412488460540771
1738565225.905559,0.2033921182155609,0.3322349786758423,0.18702131509780884,0.08023590594530106,0.6988969445228577,2.026416301727295
1738565225.922544,0.15990620851516724,0.3845769762992859,0.22249414026737213,-0.1684490144252777,0.6605474352836609,2.3369178771972656
1738565225.9425,0.044902410358190536,0.4416496157646179,0.25578048825263977,-0.40225428342819214,0.5094303488731384,2.4654743671417236
1738565225.9623141,-0.023315422236919403,0.47197669744491577,0.28714239597320557,-0.6266075372695923,0.464579313993454,2.4571762084960938
1738565225.982516,0.016068965196609497,0.5401345491409302,0.34000033140182495,-0.9300273060798645,0.4552542269229889,2.6485257148742676
1738565226.005004,0.014421120285987854,0.6338440775871277,0.34792813658714294,-1.2782649993896484,0.3902558386325836,2.982069730758667
1738565226.0224528,-0.17479079961776733,0.6769256591796875,0.2709801495075226,-1.409339189529419,0.13906683027744293,2.901507616043091
1738565226.042444,-0.23900729417800903,0.7008103132247925,0.3147044777870178,-1.5266234874725342,0.023427637293934822,2.5923852920532227
1738565226.062576,-0.15602412819862366,0.7992755174636841,0.4747762680053711,-2.0673108100891113,0.44871199131011963,2.4300453662872314
1738565226.0827599,-0.06405311822891235,0.8733267784118652,0.5532758235931396,-2.9091827869415283,0.99370276927948,2.46022891998291
1738565226.1055279,-0.07630416750907898,0.8788565397262573,0.40175044536590576,-3.505244493484497,0.9543174505233765,2.6594574451446533
1738565226.12198,-0.2962329685688019,0.8436025977134705,0.14243155717849731,-3.3805882930755615,0.2198454737663269,2.5552430152893066
1738565226.14226,-0.411370187997818,0.7683351039886475,0.13250398635864258,-3.097223997116089,-0.28972065448760986,2.2234530448913574
1738565226.162123,-0.3331160545349121,0.7186452150344849,0.299662709236145,-3.401228427886963,-0.244766965508461,2.2067391872406006
1738565226.1822739,-0.3205794095993042,0.7800853848457336,0.3412349820137024,-4.112393379211426,0.12071476876735687,2.443942070007324
1738565226.2052932,-0.639864444732666,0.8098352551460266,0.12876760959625244,-4.6362385749816895,0.1809467375278473,2.3615992069244385
1738565226.2222052,-0.9323449730873108,0.6090797185897827,-0.2431657314300537,-4.394412040710449,-0.5189357995986938,1.640971302986145
1738565226.242454,-1.035196304321289,0.5245356559753418,-0.4222734570503235,-3.916949987411499,-0.9232321381568909,0.9379761219024658
1738565226.26224,-0.9278517961502075,0.516495943069458,-0.41030389070510864,-3.765862464904785,-0.692494809627533,0.5409342050552368
1738565226.2821112,-0.8325706720352173,0.5266550779342651,-0.37946510314941406,-3.8570847511291504,-0.04144120216369629,0.4403676986694336
1738565226.305067,-0.9024988412857056,0.43462079763412476,-0.47060155868530273,-3.7006897926330566,0.42588990926742554,0.1270250827074051
1738565226.322569,-1.0101511478424072,0.3584159016609192,-0.4853716492652893,-3.370128870010376,0.33784541487693787,-0.47168800234794617
1738565226.342404,-0.9977400302886963,0.3362332582473755,-0.4034461975097656,-3.0675113201141357,0.11083534359931946,-1.175292730331421
1738565226.361866,-0.9225126504898071,0.37874510884284973,-0.2583531141281128,-3.107086658477783,0.5255589485168457,-1.8536067008972168
1738565226.382135,-0.7389795780181885,0.40155526995658875,-0.17182904481887817,-3.308001756668091,1.204973816871643,-2.5008726119995117
1738565226.402349,-0.6403652429580688,0.48109808564186096,-0.20731747150421143,-3.5126302242279053,1.937723994255066,-3.149921417236328
1738565226.4222,-0.5151796340942383,0.5228609442710876,-0.3771476745605469,-3.2624871730804443,2.044128656387329,-3.6867291927337646
1738565226.442284,-0.3689388632774353,0.49662595987319946,-0.4522879719734192,-2.849921941757202,1.7340493202209473,-3.9963533878326416
1738565226.463955,-0.29800844192504883,0.4983465075492859,-0.4783076047897339,-2.353977680206299,1.555810809135437,-4.188061237335205
1738565226.4819221,-0.2026366889476776,0.5346137285232544,-0.4160112142562866,-1.9722752571105957,1.3138961791992188,-4.2610673904418945
1738565226.50533,-0.2048892378807068,0.5348461866378784,-0.4809263348579407,-1.6305819749832153,1.0693049430847168,-4.296811580657959
1738565226.522688,-0.1331990659236908,0.5044180750846863,-0.5911948680877686,-1.085432767868042,0.8374284505844116,-4.40015172958374
1738565226.542264,-0.054196953773498535,0.5252407789230347,-0.6272227764129639,-0.690484344959259,0.8665545582771301,-4.339953422546387
1738565226.562067,-0.054284483194351196,0.4666234850883484,-0.7277318239212036,-0.21587100625038147,1.33413827419281,-4.29750919342041
1738565226.581773,-0.09365537762641907,0.46432632207870483,-0.5968939661979675,0.07886642962694168,2.1593849658966064,-4.403770923614502
1738565226.601756,-0.08970752358436584,0.4610370695590973,-0.5210766792297363,0.3435896039009094,2.1830546855926514,-4.553591728210449
1738565226.622336,0.06895783543586731,0.48098182678222656,-0.5731632709503174,0.9024076461791992,1.3404043912887573,-4.373026371002197
1738565226.641895,0.1878299117088318,0.4896370768547058,-0.6441696286201477,1.569247841835022,0.6308615803718567,-3.989412546157837
1738565226.662867,0.2614280879497528,0.46867960691452026,-0.6328203678131104,2.101273775100708,0.5132195353507996,-3.5903303623199463
1738565226.681596,0.2601860761642456,0.4678913950920105,-0.4838210940361023,2.2322216033935547,1.0458028316497803,-3.182328939437866
1738565226.701685,0.157762810587883,0.48502954840660095,-0.37015748023986816,2.115840196609497,1.5765451192855835,-2.9060304164886475
1738565226.721868,0.10889290273189545,0.4856327176094055,-0.43564510345458984,2.210122585296631,1.5736110210418701,-2.6924691200256348
1738565226.7419739,0.11221624165773392,0.4534868597984314,-0.5184168815612793,2.604327440261841,1.5074564218521118,-2.470421075820923
1738565226.762641,0.1271580010652542,0.4640233516693115,-0.4708678722381592,2.988363265991211,1.7765638828277588,-2.2764346599578857
1738565226.781656,0.18683497607707977,0.5186754465103149,-0.31739163398742676,3.0310802459716797,2.0738091468811035,-2.022846221923828
1738565226.8016372,0.23678070306777954,0.5608325004577637,-0.2192487120628357,2.868905782699585,2.4407076835632324,-1.5217697620391846
1738565226.822602,0.27917158603668213,0.5414993762969971,-0.13272416591644287,2.6564061641693115,2.4887256622314453,-0.8932339549064636
1738565226.841537,0.2114633023738861,0.49908584356307983,-0.1260014772415161,2.4650661945343018,2.391993999481201,-0.3794284164905548
1738565226.8631191,0.07051922380924225,0.48215991258621216,-0.15805190801620483,2.5384912490844727,2.4886975288391113,-0.13006973266601562
1738565226.881506,0.04170425236225128,0.46217745542526245,-0.12523823976516724,2.7099390029907227,2.400808334350586,0.048463210463523865
1738565226.902117,0.046243876218795776,0.4656945466995239,0.017859160900115967,2.6639463901519775,2.284677028656006,0.25574439764022827
1738565226.922112,0.04796859622001648,0.49142253398895264,0.09883689880371094,2.5050952434539795,2.0133566856384277,0.5657224059104919
1738565226.941668,0.0067827701568603516,0.4415600299835205,0.14372146129608154,2.323197603225708,1.9555011987686157,0.745387613773346
1738565226.9627628,0.0008447170257568359,0.41260582208633423,0.21002352237701416,2.0222177505493164,2.1508336067199707,0.8003088235855103
1738565226.9813762,0.07108968496322632,0.4117352366447449,0.2767690420150757,1.4728761911392212,2.4868109226226807,1.0189992189407349
1738565227.0013971,0.05464482307434082,0.3954283595085144,0.24041354656219482,0.9679545760154724,2.8591859340667725,1.3679395914077759
1738565227.0226579,-0.06959250569343567,0.37204474210739136,0.12251579761505127,0.7957032918930054,2.827746629714966,1.5546478033065796
1738565227.04136,-0.15990552306175232,0.34681975841522217,0.08900758624076843,0.8979983329772949,2.367586374282837,1.5293774604797363
1738565227.0612679,-0.14903470873832703,0.3187040686607361,0.1454794704914093,0.8568879961967468,1.9118239879608154,1.4793272018432617
1738565227.081246,-0.12160640954971313,0.33951735496520996,0.16370999813079834,0.6504049301147461,1.784296989440918,1.6030744314193726
1738565227.1013188,-0.1946811079978943,0.31555885076522827,0.13158738613128662,0.4479275643825531,1.9558910131454468,1.6573638916015625
1738565227.1224651,-0.2966836392879486,0.3053325414657593,0.16805005073547363,0.2138984203338623,2.054368734359741,1.527734637260437
1738565227.141263,-0.362483412027359,0.28939974308013916,0.2648816406726837,-0.15234878659248352,1.9789080619812012,1.303645133972168
1738565227.163001,-0.32653898000717163,0.23224908113479614,0.39646419882774353,-0.7418773770332336,1.8172872066497803,1.134912371635437
1738565227.181435,-0.34416139125823975,0.15522629022598267,0.33382436633110046,-1.3562158346176147,1.8222036361694336,1.0061482191085815
1738565227.201363,-0.393349826335907,0.1318587064743042,0.09928905963897705,-1.5222312211990356,1.8914538621902466,0.8604334592819214
1738565227.2219748,-0.3976719379425049,0.08881640434265137,-0.07169008255004883,-1.341254711151123,2.003983974456787,0.771239161491394
1738565227.241126,-0.36142945289611816,0.06303870677947998,-0.1621132791042328,-1.0046836137771606,1.616469144821167,0.8428343534469604
1738565227.262652,-0.3492423892021179,0.04457688331604004,-0.13953673839569092,-0.768672525882721,1.0107548236846924,0.9844264984130859
1738565227.2810159,-0.42180120944976807,0.0262947678565979,-0.17152974009513855,-0.5693550705909729,0.5799880623817444,0.993954062461853
1738565227.301142,-0.505906879901886,-0.000697791576385498,-0.2667318284511566,-0.1814056783914566,0.22411270439624786,0.754452645778656
1738565227.322555,-0.49672579765319824,-0.0060405731201171875,-0.20571130514144897,0.06710657477378845,0.2182837575674057,0.39152994751930237
1738565227.34109,-0.3709625005722046,0.005813479423522949,-0.134490966796875,0.0510491281747818,0.5114642977714539,0.26506805419921875
1738565227.3609219,-0.26409608125686646,0.02721261978149414,-0.04847314953804016,-0.1555442065000534,0.7390972375869751,0.35683473944664
1738565227.3809,-0.2907277047634125,0.002628922462463379,-0.059192955493927,-0.5254271030426025,0.8421196341514587,0.4056031107902527
1738565227.401319,-0.31141358613967896,0.008594870567321777,-0.053665339946746826,-0.8185698986053467,0.6290481686592102,0.25301405787467957
