timestamp,acc_x,acc_y,acc_z,rot_x,rot_y,rot_z
1738564655.9937592,0.056478604674339294,-0.07249444723129272,0.0834958553314209,0.2652460038661957,-0.7846471071243286,0.14070330560207367
1738564655.994596,0.10026779770851135,-0.08969920873641968,-0.11345937848091125,0.6081820130348206,-0.7901954650878906,0.3297778069972992
1738564656.0076761,0.059699565172195435,-0.12659645080566406,-0.1444595903158188,1.0195300579071045,-0.917858362197876,0.4872804284095764
1738564656.027557,-0.03611810505390167,-0.1312650442123413,-0.11821542680263519,1.3593344688415527,-1.1431528329849243,0.48464369773864746
1738564656.048002,-0.10402429103851318,-0.108487069606781,0.037099018692970276,1.4268394708633423,-1.583324670791626,0.42994236946105957
1738564656.067652,-0.09716391563415527,-0.1703011393547058,0.035562872886657715,1.4095808267593384,-2.001133441925049,0.3392956554889679
1738564656.087864,-0.10002000629901886,-0.1368275284767151,-0.004604212939739227,1.5369606018066406,-2.1471943855285645,0.24009113013744354
1738564656.107582,-0.09620004892349243,-0.11409115791320801,0.06604158878326416,1.44352388381958,-1.903018832206726,0.17818082869052887
1738564656.1275811,-0.13234271109104156,-0.08820551633834839,0.07009810209274292,1.276849627494812,-1.5359083414077759,0.04029306396842003
1738564656.14919,-0.14745387434959412,-0.06631141901016235,0.08414816856384277,1.1691832542419434,-1.2706050872802734,-0.1150093749165535
1738564656.167521,-0.11095516383647919,-0.0541529655456543,0.14957141876220703,1.0218561887741089,-1.3069313764572144,-0.12672056257724762
1738564656.1876168,-0.0626218318939209,-0.02863621711730957,0.1623622179031372,0.9566487073898315,-1.5784679651260376,-0.013083480298519135
1738564656.207891,-0.03541523218154907,0.01205819845199585,0.17615056037902832,0.9713345170021057,-1.8572851419448853,0.20582084357738495
1738564656.227498,-0.11165983974933624,0.035247623920440674,0.20722198486328125,0.9157814383506775,-2.065748691558838,0.2642616331577301
1738564656.250091,-0.19256556034088135,0.04561525583267212,0.2021246999502182,0.8879699110984802,-2.2076642513275146,0.042678527534008026
1738564656.267716,-0.15995270013809204,0.07459074258804321,0.2281728833913803,0.800565779209137,-2.265794038772583,-0.15628811717033386
1738564656.28899,-0.07499957084655762,0.11885982751846313,0.2711562216281891,0.5978081226348877,-2.2431743144989014,-0.1347149759531021
1738564656.307351,0.0016402602195739746,0.14260327816009521,0.30628740787506104,0.28431937098503113,-2.221945285797119,0.02796049788594246
1738564656.327523,-0.0061590224504470825,0.17143374681472778,0.30069398880004883,-0.049257535487413406,-2.1478188037872314,0.15219037234783173
1738564656.349818,-0.0878974050283432,0.18434125185012817,0.2538274824619293,-0.2589573264122009,-2.036004066467285,0.04422382637858391
1738564656.3673139,-0.09603476524353027,0.20251548290252686,0.2559584379196167,-0.4866735637187958,-1.9110687971115112,-0.20415401458740234
1738564656.3873029,-0.03225691616535187,0.242608904838562,0.2591572105884552,-0.748206615447998,-1.7849913835525513,-0.25551190972328186
1738564656.4072819,0.03842341899871826,0.2608609199523926,0.24311330914497375,-0.9367783069610596,-1.8173946142196655,-0.15653955936431885
1738564656.4272351,0.062085360288619995,0.2861320376396179,0.24400445818901062,-1.1573688983917236,-1.9691189527511597,-0.03890974819660187
1738564656.447291,0.02668088674545288,0.316267192363739,0.22014987468719482,-1.4411565065383911,-1.8885853290557861,-0.05119883641600609
1738564656.46728,0.015418455004692078,0.3420884609222412,0.13882076740264893,-1.6451178789138794,-1.7425955533981323,-0.16901396214962006
1738564656.487463,0.06534744054079056,0.3640141487121582,0.07687496393918991,-1.7005870342254639,-1.6369502544403076,-0.250244677066803
1738564656.507403,0.17156614363193512,0.3780421018600464,0.02747928351163864,-1.5897794961929321,-1.7995527982711792,-0.07803956419229507
1738564656.527556,0.24701547622680664,0.4005022644996643,0.01708793267607689,-1.5043163299560547,-2.168593406677246,0.2496340274810791
1738564656.5502071,0.2224038541316986,0.4055294394493103,0.07490622997283936,-1.6637822389602661,-2.157576322555542,0.4875468611717224
1738564656.567068,0.20703259110450745,0.4071503281593323,0.044371604919433594,-1.8878889083862305,-2.0027341842651367,0.6113206744194031
1738564656.58758,0.16936884820461273,0.4039042592048645,0.0005770940333604813,-1.9997847080230713,-1.8089512586593628,0.6650591492652893
1738564656.6069741,0.16709482669830322,0.38123583793640137,-0.048016369342803955,-1.9872859716415405,-1.8719686269760132,0.6819114089012146
1738564656.627039,0.2022688090801239,0.39438652992248535,-0.07137203216552734,-1.8625264167785645,-2.026519298553467,0.7854806184768677
1738564656.647132,0.2619088888168335,0.41669970750808716,-0.017629310488700867,-1.9262176752090454,-2.1628568172454834,1.0562913417816162
1738564656.666909,0.22630906105041504,0.466278076171875,-0.0366215705871582,-2.1452386379241943,-2.200934886932373,1.3835690021514893
1738564656.686853,0.09185813367366791,0.46541881561279297,-0.13475053012371063,-2.2817792892456055,-1.8795992136001587,1.4468332529067993
1738564656.7069259,0.049615174531936646,0.3967304825782776,-0.16460679471492767,-2.291445255279541,-1.403883695602417,1.2766739130020142
1738564656.7272282,0.13745975494384766,0.42002248764038086,-0.1153562068939209,-2.462829351425171,-1.420373558998108,1.208958625793457
1738564656.7501059,0.22914421558380127,0.48490220308303833,-0.1711636781692505,-2.6015067100524902,-1.520015001296997,1.4899617433547974
1738564656.767099,0.2419721484184265,0.4929347038269043,-0.2785860598087311,-2.71014404296875,-1.4627267122268677,1.8643686771392822
1738564656.7868829,0.13775458931922913,0.4479407072067261,-0.4272158145904541,-2.49419903755188,-1.1567760705947876,2.0117921829223633
1738564656.806809,0.101769357919693,0.39751923084259033,-0.4233625829219818,-2.2825143337249756,-0.9544870257377625,1.9315545558929443
1738564656.8269029,0.20083990693092346,0.3815782070159912,-0.40108534693717957,-2.238821029663086,-0.8908830285072327,2.0452373027801514
1738564656.8465052,0.25980323553085327,0.3535929322242737,-0.41237470507621765,-2.1578924655914307,-0.9135816693305969,2.5046439170837402
1738564656.866703,0.12627291679382324,0.3223921060562134,-0.46442633867263794,-1.9957339763641357,-1.0657031536102295,2.7033345699310303
1738564656.886712,-0.040651559829711914,0.28622156381607056,-0.5225521326065063,-1.6949748992919922,-1.0248380899429321,2.411777973175049
1738564656.906551,0.015426278114318848,0.2697902321815491,-0.49432244896888733,-1.5292936563491821,-0.7597339749336243,2.0741055011749268
1738564656.926742,0.1786099672317505,0.2367681860923767,-0.45228299498558044,-1.5018861293792725,-0.4836606979370117,2.198974370956421
1738564656.946738,0.1513446569442749,0.26064974069595337,-0.4798452854156494,-1.4649924039840698,-0.4019257426261902,2.4309263229370117
1738564656.9668221,0.05789822340011597,0.2214251458644867,-0.5786062479019165,-1.298483967781067,-0.482583612203598,2.3820784091949463
1738564656.9869618,0.07181292772293091,0.1708812117576599,-0.6633296012878418,-0.8800886869430542,-0.6037400960922241,2.3651134967803955
1738564657.006747,0.09192430973052979,0.13472506403923035,-0.618425190448761,-0.49870285391807556,-0.6581060290336609,2.5433027744293213
1738564657.0267649,0.03308284282684326,0.1366496980190277,-0.5981056690216064,-0.3204520046710968,-0.6908054351806641,2.7610819339752197
1738564657.04678,-0.09165549278259277,0.10982060432434082,-0.6344320774078369,-0.07633047550916672,-0.5120788812637329,2.772679567337036
1738564657.0666552,-0.15161776542663574,0.10522828996181488,-0.6008424758911133,0.08566935360431671,-0.3153437674045563,2.496264934539795
1738564657.0862389,-0.14002567529678345,0.12426422536373138,-0.6613724827766418,0.4082760810852051,-0.2639602720737457,2.2338998317718506
1738564657.108055,-0.035417377948760986,0.07774114608764648,-0.6276981234550476,0.9010546803474426,-0.19897139072418213,2.2441341876983643
1738564657.126748,0.0424460768699646,-0.0013336986303329468,-0.43579167127609253,1.1009401082992554,-0.019896134734153748,2.504727363586426
1738564657.149534,-0.011366665363311768,0.02079123631119728,-0.33643555641174316,1.0521918535232544,0.045587994158267975,2.7427167892456055
1738564657.166812,-0.117953360080719,0.045275766402482986,-0.4095771312713623,1.0670185089111328,0.12696221470832825,2.8336052894592285
1738564657.186434,-0.19571596384048462,-0.007310774177312851,-0.5285073518753052,1.2387522459030151,0.36523300409317017,2.814441442489624
1738564657.2070851,-0.3425530195236206,-0.024264730513095856,-0.49097663164138794,1.465282678604126,0.8197330236434937,2.8373568058013916
1738564657.226342,-0.3838828206062317,-0.02867840975522995,-0.44538015127182007,1.5032554864883423,1.0953423976898193,2.6741888523101807
1738564657.249924,-0.3229658603668213,0.004217170178890228,-0.5411749482154846,1.7093188762664795,1.213423252105713,2.5066568851470947
1738564657.2666202,-0.37817466259002686,0.02639944851398468,-0.48337727785110474,1.9885473251342773,1.1508336067199707,2.6542441844940186
1738564657.286285,-0.49942100048065186,0.044164419174194336,-0.39740926027297974,2.150451183319092,0.7352822422981262,2.6289215087890625
1738564657.306658,-0.4885503053665161,0.02475358545780182,-0.3805922865867615,2.33160138130188,0.46357816457748413,2.407209873199463
1738564657.326169,-0.48622363805770874,0.0124884694814682,-0.33269500732421875,2.3338866233825684,0.45200589299201965,2.1568710803985596
1738564657.3498368,-0.5205115079879761,0.005506992340087891,-0.37736690044403076,2.3959295749664307,0.39068952202796936,1.8464603424072266
1738564657.3671188,-0.5027623772621155,0.04755239188671112,-0.36665844917297363,2.617952346801758,0.28977102041244507,1.5239686965942383
1738564657.386215,-0.37177979946136475,0.0575965940952301,-0.2876700162887573,2.713430166244507,0.14791753888130188,1.3461296558380127
1738564657.406012,-0.3591997027397156,0.075095996260643,-0.31192106008529663,2.946727752685547,-0.039420247077941895,1.3934470415115356
1738564657.4260612,-0.5058779716491699,0.07908982038497925,-0.2613183259963989,3.126767158508301,-0.28287577629089355,1.1803292036056519
1738564657.446255,-0.5525760650634766,0.07143621146678925,-0.13456088304519653,2.8562958240509033,-0.29566851258277893,0.4897054135799408
1738564657.466228,-0.4241870045661926,0.06077931076288223,-0.23106533288955688,2.6000235080718994,0.1099744588136673,-0.18281027674674988
1738564657.486289,-0.25651806592941284,0.13526146113872528,-0.3289998769760132,2.640737295150757,0.63591068983078,-0.5084547400474548
1738564657.50591,-0.11143243312835693,0.19100147485733032,-0.3387046456336975,2.80014705657959,0.9628319144248962,-0.4809363782405853
1738564657.5258698,-0.005136013031005859,0.19621619582176208,-0.3000492453575134,3.09769344329834,0.8716813325881958,-0.2825346887111664
1738564657.545953,0.04527783393859863,0.227105975151062,-0.22481393814086914,3.386827230453491,0.4510693848133087,-0.09607212245464325
1738564657.56628,0.07741361856460571,0.23686769604682922,-0.1232413649559021,3.5437681674957275,-0.019809799268841743,0.15844039618968964
1738564657.5860271,0.06825804710388184,0.246722012758255,0.04329836368560791,3.3250198364257812,-0.36203163862228394,0.29653310775756836
1738564657.606526,0.044099509716033936,0.17529213428497314,0.011931240558624268,3.1762359142303467,-0.6225201487541199,0.3437548875808716
1738564657.625799,-0.0071898698806762695,0.1453547179698944,-0.06974703073501587,3.2895445823669434,-0.9101564288139343,0.27071282267570496
1738564657.649833,-0.041691720485687256,0.13372468948364258,-0.09298336505889893,3.504751682281494,-1.168702483177185,0.22432813048362732
1738564657.66711,-0.09586215019226074,0.14878517389297485,0.0032633543014526367,3.4312362670898438,-1.0669487714767456,0.04787075147032738
1738564657.68611,-0.1598285436630249,0.14422988891601562,0.13855791091918945,3.0081427097320557,-0.23150545358657837,-0.2569541931152344
1738564657.707152,-0.15668988227844238,0.14091897010803223,0.16207748651504517,2.5719268321990967,0.4023246169090271,-0.47953522205352783
1738564657.725565,-0.13277173042297363,0.12710943818092346,0.06219053268432617,2.651272773742676,0.33573025465011597,-0.5247576832771301
1738564657.745625,-0.14166486263275146,0.11397972702980042,0.06413784623146057,2.9098384380340576,-0.14191710948944092,-0.4770755171775818
1738564657.765668,-0.17256534099578857,0.11530321836471558,0.17733526229858398,3.0684561729431152,-0.7668075561523438,-0.495495080947876
1738564657.785589,-0.1733461618423462,0.12741321325302124,0.32970237731933594,2.8068063259124756,-1.1676907539367676,-0.5720627903938293
1738564657.805571,-0.17881327867507935,0.12113779783248901,0.3438967764377594,2.2950079441070557,-1.042158603668213,-0.6692003607749939
1738564657.825659,-0.19470906257629395,0.11071193218231201,0.21138349175453186,2.0605034828186035,-0.6759557127952576,-0.8549941182136536
1738564657.84557,-0.22769218683242798,0.10209566354751587,0.19393983483314514,1.9358081817626953,-0.3138999342918396,-1.176011085510254
1738564657.865566,-0.20788007974624634,0.10797357559204102,0.2473931908607483,1.7114508152008057,-0.21400229632854462,-1.4783076047897339
1738564657.885493,-0.1525542140007019,0.1112636923789978,0.2534175515174866,1.5191843509674072,-0.2560249865055084,-1.6546369791030884
1738564657.908184,-0.08560752868652344,0.12983399629592896,0.2221611887216568,1.3901046514511108,-0.47504520416259766,-1.6516356468200684
1738564657.925723,-0.07622981071472168,0.1617984175682068,0.1936599165201187,1.3523805141448975,-0.6813948154449463,-1.5884627103805542
1738564657.945726,-0.08329468965530396,0.17107337713241577,0.19389206171035767,1.3216862678527832,-0.8076583743095398,-1.5852833986282349
1738564657.966566,-0.049942970275878906,0.19793516397476196,0.22465097904205322,1.214271903038025,-0.9085505604743958,-1.5923587083816528
1738564657.985227,0.006333529949188232,0.21260863542556763,0.2661581039428711,1.0252385139465332,-0.867651104927063,-1.5291941165924072
1738564658.0053139,0.0025143027305603027,0.24127507209777832,0.3497428297996521,0.687410295009613,-0.6602098941802979,-1.4662024974822998
1738564658.0253181,0.02951812744140625,0.25429481267929077,0.3519657254219055,0.31790924072265625,-0.5482058525085449,-1.4191079139709473
1738564658.0453649,0.017678141593933105,0.2880774140357971,0.2695286273956299,0.22368404269218445,-0.5470002293586731,-1.3349241018295288
1738564658.065264,-0.041904300451278687,0.2736068367958069,0.23227322101593018,0.3148435950279236,-0.7530187964439392,-1.420422077178955
1738564658.0852962,-0.054435402154922485,0.2524257302284241,0.2716928720474243,0.2913653552532196,-1.1888277530670166,-1.665015459060669
1738564658.105146,0.04809987545013428,0.3019169569015503,0.2873225212097168,0.13705837726593018,-1.5715563297271729,-1.7173171043395996
1738564658.125228,0.156198650598526,0.34929221868515015,0.3046373128890991,-0.09949731826782227,-1.6084439754486084,-1.4255343675613403
1738564658.145424,0.2039482295513153,0.3566915988922119,0.31325316429138184,-0.5188270807266235,-1.5182932615280151,-1.0263135433197021
1738564658.165462,0.05454495549201965,0.3306465148925781,0.21231114864349365,-0.806236207485199,-1.1126062870025635,-0.9878184199333191
1738564658.185442,-0.0020248889923095703,0.3043508529663086,0.11445999145507812,-0.8748564124107361,-0.69379061460495,-1.273539423942566
1738564658.207965,0.03731539845466614,0.2896025776863098,0.17280447483062744,-1.069599986076355,-0.35850468277931213,-1.4840738773345947
1738564658.225199,0.13120940327644348,0.28580242395401,0.22003185749053955,-1.483892798423767,-0.31153762340545654,-1.4509791135787964
1738564658.245088,0.1544891595840454,0.28633761405944824,0.1387653946876526,-1.7969346046447754,-0.31928518414497375,-1.2760127782821655
1738564658.266581,0.11889678239822388,0.24701285362243652,-0.017043225467205048,-1.7720409631729126,-0.24877366423606873,-1.1504331827163696
1738564658.284999,0.06951317191123962,0.2134251594543457,-0.10218079388141632,-1.565817952156067,-0.13735291361808777,-1.297220230102539
1738564658.306982,0.12813082337379456,0.2089911699295044,-0.05235294997692108,-1.4984875917434692,0.10270941257476807,-1.3937939405441284
1738564658.325001,0.2424328625202179,0.20958471298217773,0.021298766136169434,-1.5818336009979248,0.35495176911354065,-1.2096234560012817
1738564658.345024,0.34766319394111633,0.13578695058822632,0.07694411277770996,-1.8314270973205566,0.3722463548183441,-0.8287568688392639
1738564658.367293,0.19283917546272278,0.11587399244308472,-0.028459474444389343,-1.7943159341812134,0.43792465329170227,-0.7118631601333618
1738564658.385445,0.14222870767116547,0.06049686670303345,-0.0872548520565033,-1.469138264656067,0.44453319907188416,-0.8218799233436584
1738564658.405055,0.2133154571056366,0.04616522789001465,-0.029770374298095703,-1.2757169008255005,0.3266346752643585,-0.7350565195083618
1738564658.425116,0.2873990833759308,0.035177767276763916,0.008822739124298096,-1.2605050802230835,0.32133451104164124,-0.36914247274398804
1738564658.444889,0.24040260910987854,0.02208918333053589,-0.008550971746444702,-1.2975279092788696,0.3640337586402893,-0.0358491949737072
1738564658.467513,0.09101712703704834,-0.03218984603881836,-0.14357835054397583,-1.0890793800354004,0.4261417090892792,-0.033063869923353195
1738564658.484939,0.019649244844913483,-0.058874428272247314,-0.21483784914016724,-0.6703097820281982,0.41084203124046326,-0.24911540746688843
1738564658.505008,0.02759256213903427,-0.07792198657989502,-0.13483166694641113,-0.4571585953235626,0.4068611264228821,-0.45180460810661316
1738564658.524991,0.11343502998352051,-0.06581312417984009,-0.11149263381958008,-0.3735140860080719,0.3987025320529938,-0.4576108157634735
1738564658.544633,0.2381732314825058,-0.0671190619468689,0.05698847770690918,-0.603569746017456,0.3236773610115051,-0.2828015387058258
