timestamp,acc_x,acc_y,acc_z,rot_x,rot_y,rot_z
1738575854.323587,-0.026193946599960327,-0.2213495373725891,0.040980011224746704,0.5937948822975159,-0.873733639717102,0.5586539506912231
1738575854.324264,-0.11708441376686096,-0.20592814683914185,-0.11173349618911743,0.8939023613929749,-0.815406322479248,0.5350773334503174
1738575854.3317962,-0.1573657989501953,-0.1767803430557251,-0.14697274565696716,1.2015944719314575,-0.6745550632476807,0.5477352142333984
1738575854.352141,-0.14989902079105377,-0.16713738441467285,-0.12831711769104004,1.5021518468856812,-0.7278730869293213,0.6295144557952881
1738575854.374496,-0.2323472499847412,-0.14711445569992065,-0.13969114422798157,1.9522029161453247,-1.0127012729644775,0.6318422555923462
1738575854.3913832,-0.3141835927963257,-0.14316165447235107,-0.07639265060424805,2.3059768676757812,-1.3235386610031128,0.6201838850975037
1738575854.411433,-0.36604058742523193,-0.13160884380340576,0.056313157081604004,2.3764548301696777,-1.4131872653961182,0.633700430393219
1738575854.431695,-0.43625956773757935,-0.13187497854232788,0.1764974743127823,2.2362570762634277,-1.560444712638855,0.511020839214325
1738575854.451198,-0.5071762800216675,-0.1430456042289734,0.27258026599884033,1.9507901668548584,-1.86882483959198,0.22777515649795532
1738575854.4711199,-0.5790943503379822,-0.09401953220367432,0.328637957572937,1.5202915668487549,-1.9013985395431519,-0.12437745183706284
1738575854.491538,-0.5903859734535217,-0.05759894847869873,0.3032858371734619,1.2064839601516724,-1.9388973712921143,-0.4732516407966614
1738575854.511437,-0.5902227759361267,-0.011256217956542969,0.2004997730255127,1.1616371870040894,-2.1036388874053955,-0.7923628687858582
1738575854.5322719,-0.5400592088699341,0.05083787441253662,0.1718761920928955,1.1793997287750244,-2.3048627376556396,-0.9465847015380859
1738575854.5511699,-0.46895623207092285,0.13034820556640625,0.1987457275390625,1.191456913948059,-2.607759714126587,-0.9456114768981934
1738575854.571547,-0.4268110394477844,0.19724595546722412,0.24158036708831787,1.190805435180664,-3.0540060997009277,-0.9237257242202759
1738575854.592626,-0.4543374180793762,0.2585930824279785,0.2716408967971802,1.2094557285308838,-3.4516801834106445,-0.9748088717460632
1738575854.6114712,-0.44127383828163147,0.32278305292129517,0.34304046630859375,0.9862508177757263,-3.6913299560546875,-1.0456578731536865
1738575854.6328301,-0.39981913566589355,0.38234829902648926,0.4267573058605194,0.514157235622406,-3.7587835788726807,-1.0737659931182861
1738575854.651165,-0.4287644922733307,0.4355745315551758,0.36880385875701904,0.1601269692182541,-3.7838895320892334,-1.2212674617767334
1738575854.671027,-0.4086768329143524,0.4663357138633728,0.3322247564792633,-0.19943417608737946,-3.9119606018066406,-1.3308417797088623
1738575854.691833,-0.3619906008243561,0.5024417638778687,0.28143787384033203,-0.5696064829826355,-4.057322978973389,-1.3619827032089233
1738575854.711142,-0.34382832050323486,0.5526100397109985,0.21399998664855957,-0.884817898273468,-3.9930741786956787,-1.3468669652938843
1738575854.732177,-0.27047866582870483,0.6107646226882935,0.1829991340637207,-1.2560935020446777,-3.91902232170105,-1.1495308876037598
1738575854.7510362,-0.1761336773633957,0.6113372445106506,0.17303894460201263,-1.690133810043335,-3.8671622276306152,-0.816272497177124
1738575854.771039,-0.21930231153964996,0.6608443856239319,0.1315772533416748,-2.0668416023254395,-3.813525438308716,-0.6268641948699951
1738575854.791312,-0.2565181851387024,0.6708885431289673,0.057955145835876465,-2.300832986831665,-3.6810996532440186,-0.4845336675643921
1738575854.811266,-0.15035316348075867,0.6688690185546875,0.020254019647836685,-2.4521191120147705,-3.632927894592285,-0.12147875875234604
1738575854.831011,-0.14068858325481415,0.7233241200447083,0.0739593580365181,-2.725867509841919,-3.5215399265289307,0.1307138353586197
1738575854.85114,-0.1827177256345749,0.7356363534927368,0.030403539538383484,-2.8127055168151855,-3.457028388977051,0.22165554761886597
1738575854.870872,-0.21792341768741608,0.7606543302536011,0.025841563940048218,-2.8787519931793213,-3.4847285747528076,0.29501259326934814
1738575854.89085,-0.1819075047969818,0.7622880935668945,0.08674430847167969,-3.1640546321868896,-3.536161184310913,0.4083809554576874
1738575854.911032,-0.17173469066619873,0.7749009132385254,0.13036364316940308,-3.556481122970581,-3.4209651947021484,0.553288459777832
1738575854.930696,-0.17951586842536926,0.7655029892921448,0.14309680461883545,-3.9027163982391357,-3.2860193252563477,0.7260916829109192
1738575854.950681,-0.21285215020179749,0.7767757773399353,0.15309113264083862,-4.109375953674316,-3.3598012924194336,0.8794466853141785
1738575854.970793,-0.21707776188850403,0.8073980808258057,0.21755969524383545,-4.300279140472412,-3.612729787826538,1.1017674207687378
1738575854.990629,-0.3031975030899048,0.8748815655708313,0.279760479927063,-4.640435218811035,-4.092482089996338,1.285317301750183
1738575855.0106459,-0.5712472200393677,0.9456914067268372,0.2657850980758667,-5.250164031982422,-4.23617696762085,1.162892460823059
1738575855.03084,-0.7281288504600525,1.0204441547393799,0.051540255546569824,-5.663656234741211,-4.0537943840026855,0.9767400622367859
1738575855.050812,-0.6358238458633423,1.01471745967865,-0.3034965991973877,-5.365852355957031,-3.759265422821045,1.005120038986206
1738575855.070678,-0.6404620409011841,0.9550904035568237,-0.5939432978630066,-4.470581531524658,-3.3284146785736084,0.8604122996330261
1738575855.091488,-0.4919852614402771,0.8262964487075806,-0.6544139385223389,-3.530585289001465,-3.3435075283050537,0.6770148873329163
1738575855.1101751,-0.24877136945724487,0.8065182566642761,-0.6053805351257324,-2.723813772201538,-3.5820720195770264,0.7595091462135315
1738575855.130183,0.06093895435333252,0.7871806025505066,-0.5458052754402161,-2.1567044258117676,-3.6475183963775635,1.241109013557434
1738575855.1502151,0.12895995378494263,0.7161153554916382,-0.551523745059967,-1.6807423830032349,-3.3290321826934814,1.6211999654769897
1738575855.170465,0.08712834119796753,0.6988112330436707,-0.5601689219474792,-1.2465053796768188,-3.0367586612701416,1.868967056274414
1738575855.190316,0.19409072399139404,0.6138094067573547,-0.5792316794395447,-0.8111220002174377,-3.0884506702423096,2.4391088485717773
1738575855.2103949,0.14743876457214355,0.5078396201133728,-0.6445879340171814,-0.23509520292282104,-3.037961959838867,2.8548245429992676
1738575855.23018,-0.017050504684448242,0.41870003938674927,-0.6459713578224182,0.1837221086025238,-2.9370365142822266,2.796281099319458
1738575855.250543,-0.1035686731338501,0.4883675277233124,-0.6498302221298218,0.4538235366344452,-2.884026050567627,2.7445807456970215
1738575855.270568,0.013263881206512451,0.4711058437824249,-0.7190095782279968,0.8135521411895752,-2.6457765102386475,3.0367813110351562
1738575855.292992,0.02182215452194214,0.4405868947505951,-0.8275734186172485,1.4594261646270752,-2.165238857269287,3.3729422092437744
1738575855.310139,0.011480927467346191,0.38124728202819824,-0.8125112056732178,2.2261404991149902,-2.302142381668091,3.599597215652466
1738575855.3301558,-0.06600344181060791,0.4478949308395386,-0.7728163003921509,2.9383037090301514,-2.8911337852478027,3.821774959564209
1738575855.350089,-0.1860719919204712,0.4589206576347351,-0.8066954612731934,3.62882924079895,-3.0931084156036377,3.8479528427124023
1738575855.370049,-0.2423713207244873,0.3357475697994232,-0.8480708599090576,4.2955827713012695,-2.662785768508911,3.9568045139312744
1738575855.390098,-0.35343772172927856,0.2674024999141693,-0.814993143081665,4.827861785888672,-2.1216039657592773,4.08711576461792
1738575855.409975,-0.49556756019592285,0.20798960328102112,-0.6866413950920105,5.081789016723633,-1.760563611984253,3.9185125827789307
1738575855.430001,-0.63763427734375,0.2117893099784851,-0.6308677196502686,5.310018539428711,-1.5815870761871338,3.454422950744629
1738575855.449903,-0.6635300517082214,0.20213183760643005,-0.6515552997589111,5.734683513641357,-1.3419296741485596,3.0947887897491455
1738575855.4698749,-0.7379364371299744,0.24673399329185486,-0.6762880086898804,6.388790130615234,-1.0191965103149414,2.7459681034088135
1738575855.493331,-0.743279218673706,0.3689609169960022,-0.4653092622756958,6.548191547393799,-0.7869907021522522,2.404823064804077
1738575855.510129,-0.7340674996376038,0.45003849267959595,-0.28396785259246826,6.381320476531982,-0.45193910598754883,2.134774923324585
1738575855.530106,-0.8659337759017944,0.3518909513950348,-0.3181164860725403,6.6185479164123535,-0.09410855174064636,1.7340774536132812
1738575855.549871,-1.009448766708374,0.42381030321121216,-0.22349339723587036,6.778072357177734,-0.13482540845870972,1.1850297451019287
1738575855.569706,-1.010554552078247,0.5094987750053406,-0.0655975341796875,6.673434734344482,-0.2766276001930237,0.555374801158905
1738575855.592811,-0.9583771824836731,0.5325950384140015,0.055349111557006836,6.262319087982178,0.027636438608169556,-0.01499392744153738
1738575855.609768,-0.9639424681663513,0.5415443778038025,0.04781186580657959,5.989584445953369,0.46734145283699036,-0.37933188676834106
1738575855.6298451,-0.995452880859375,0.5693930387496948,0.10614120960235596,5.708225727081299,0.4798020124435425,-0.7501053810119629
1738575855.6497102,-0.9813289642333984,0.5610385537147522,0.17256420850753784,5.383332252502441,0.28956183791160583,-1.2660191059112549
1738575855.6696281,-0.8876026272773743,0.5641599297523499,0.2246326208114624,4.897827625274658,0.3675518333911896,-1.6397924423217773
1738575855.689563,-0.8043705821037292,0.5733639597892761,0.24699807167053223,4.346714496612549,0.7352614998817444,-1.903877854347229
1738575855.709564,-0.7562249898910522,0.5878452062606812,0.22216558456420898,3.8405885696411133,1.1678235530853271,-2.084925413131714
1738575855.7297359,-0.7138383984565735,0.6019173860549927,0.24556279182434082,3.368187427520752,1.234692931175232,-2.2434961795806885
1738575855.749909,-0.689949631690979,0.5868256092071533,0.26245707273483276,3.0114569664001465,0.9937185049057007,-2.4671130180358887
1738575855.769964,-0.6054789423942566,0.5884314775466919,0.1943596601486206,2.935779333114624,0.858099639415741,-2.650459051132202
1738575855.792904,-0.5360943078994751,0.6028254628181458,0.16524964570999146,2.962902069091797,0.7002273797988892,-2.762181043624878
1738575855.810268,-0.4404333233833313,0.6068084836006165,0.25466203689575195,2.676145553588867,0.6774473786354065,-2.7320361137390137
1738575855.829561,-0.37884169816970825,0.6203789114952087,0.3352314829826355,2.185412883758545,0.7034288644790649,-2.625027894973755
1738575855.8498511,-0.3656226098537445,0.5842973589897156,0.3375129699707031,1.8240469694137573,0.6091998815536499,-2.6681439876556396
1738575855.869338,-0.38306331634521484,0.5899020433425903,0.26814067363739014,1.716160774230957,0.4947304427623749,-2.819998264312744
1738575855.889308,-0.338835209608078,0.5841861367225647,0.2237934172153473,1.7825795412063599,0.28661105036735535,-2.9018101692199707
1738575855.9091392,-0.15948888659477234,0.5744460225105286,0.34379369020462036,1.4356192350387573,0.13151217997074127,-2.672309637069702
1738575855.9294128,-0.09948429465293884,0.5833132266998291,0.43369850516319275,0.9239227175712585,0.15259820222854614,-2.4087085723876953
1738575855.9503732,-0.21767941117286682,0.5468866229057312,0.3605322241783142,0.6571506857872009,0.25997650623321533,-2.4744155406951904
1738575855.969109,-0.2435941994190216,0.5208356976509094,0.3248971700668335,0.4267052412033081,0.36857834458351135,-2.6172075271606445
1738575855.9895182,-0.14891399443149567,0.5300698280334473,0.39777839183807373,0.09079805016517639,0.43250036239624023,-2.5116236209869385
1738575856.009989,0.032861411571502686,0.4821275472640991,0.43927186727523804,-0.26250261068344116,0.38022661209106445,-2.108379602432251
1738575856.029357,0.12461057305335999,0.44880789518356323,0.4600948691368103,-0.6624577641487122,0.17858926951885223,-1.628366231918335
1738575856.0495,0.07465988397598267,0.4095671772956848,0.38526883721351624,-0.8604838848114014,0.022213339805603027,-1.3927043676376343
1738575856.068923,0.0006762295961380005,0.36658942699432373,0.31447720527648926,-0.9799483418464661,-0.01491214707493782,-1.416168451309204
1738575856.0888848,0.027572259306907654,0.3265761137008667,0.3363580107688904,-1.279538631439209,0.02851356379687786,-1.4602969884872437
1738575856.1093512,0.12731198966503143,0.30028486251831055,0.3038136959075928,-1.4751052856445312,0.13470152020454407,-1.3290433883666992
1738575856.1290932,0.2691081166267395,0.25546497106552124,0.24001044034957886,-1.5047461986541748,0.19070853292942047,-0.958305835723877
1738575856.148999,0.3549450635910034,0.1912543773651123,0.163066565990448,-1.432214379310608,0.31564727425575256,-0.529893159866333
1738575856.1688828,0.33392027020454407,0.12044715881347656,0.11876124143600464,-1.4018703699111938,0.4545777440071106,-0.2925950288772583
