timestamp,acc_x,acc_y,acc_z,rot_x,rot_y,rot_z
1738564670.049621,0.14041094481945038,-0.16977709531784058,0.12767136096954346,0.48770397901535034,-0.3261132538318634,0.24142475426197052
1738564670.050883,0.14036792516708374,-0.1176459789276123,-0.04306513071060181,0.6320804357528687,-0.4077272117137909,0.5085007548332214
1738564670.0561,0.08465252071619034,-0.059860050678253174,-0.06845560669898987,0.7361857891082764,-0.6602790355682373,0.7793666124343872
1738564670.075759,-0.011592775583267212,-0.12189972400665283,-0.0032424628734588623,0.7555633783340454,-0.9536649584770203,0.8375833630561829
1738564670.095768,-0.073505699634552,-0.13925421237945557,-0.10142122209072113,1.039699673652649,-1.2736402750015259,0.8234989643096924
1738564670.1158562,-0.1264074444770813,-0.18260425329208374,-0.15558409690856934,1.3478562831878662,-1.515404462814331,0.7352223992347717
1738564670.139138,-0.1918865591287613,-0.201263427734375,-0.046720147132873535,1.3214194774627686,-1.4542125463485718,0.49778658151626587
1738564670.155961,-0.25607261061668396,-0.16384214162826538,0.11708258092403412,0.9170339107513428,-0.6854262351989746,0.25099173188209534
1738564670.176162,-0.29052314162254333,-0.13359379768371582,0.18039441108703613,0.4775591194629669,0.037309229373931885,0.008215933106839657
1738564670.196494,-0.29904258251190186,-0.13724815845489502,0.10272514820098877,0.4180067479610443,0.021811828017234802,-0.23019137978553772
1738564670.215993,-0.29773151874542236,-0.10907900333404541,0.051250994205474854,0.5991185307502747,-0.4600163400173187,-0.43202197551727295
1738564670.2397041,-0.2324783056974411,-0.04668670892715454,0.07208377867937088,0.744409441947937,-0.8705124258995056,-0.4216168224811554
1738564670.256847,-0.1662241369485855,0.017226099967956543,0.11886359006166458,0.7462940812110901,-1.1575233936309814,-0.31855860352516174
1738564670.276293,-0.16571080684661865,0.061805784702301025,0.17602849006652832,0.64848393201828,-1.3046258687973022,-0.2946852445602417
1738564670.296021,-0.16681377589702606,0.11079281568527222,0.21714746952056885,0.45856964588165283,-1.2856347560882568,-0.333970844745636
1738564670.315806,-0.18075856566429138,0.14438754320144653,0.23158341646194458,0.28465911746025085,-1.252798080444336,-0.38203373551368713
1738564670.335985,-0.17314553260803223,0.16341722011566162,0.2120797038078308,0.21611663699150085,-1.4635883569717407,-0.3977145552635193
1738564670.356188,-0.18452447652816772,0.18600541353225708,0.22108793258666992,0.16999636590480804,-1.7353397607803345,-0.41853034496307373
1738564670.3758001,-0.17583681643009186,0.20411455631256104,0.26193881034851074,0.01167710218578577,-1.8511141538619995,-0.44763216376304626
1738564670.395685,-0.1649392545223236,0.23372375965118408,0.2972570061683655,-0.27993467450141907,-1.7253563404083252,-0.48460397124290466
1738564670.415869,-0.17593148350715637,0.25743162631988525,0.3036183714866638,-0.5856336951255798,-1.558624267578125,-0.5411476492881775
1738564670.4360871,-0.18894658982753754,0.24525755643844604,0.2516794800758362,-0.6962729692459106,-1.6726160049438477,-0.6513447165489197
1738564670.455943,-0.193948894739151,0.24105602502822876,0.23313874006271362,-0.7485151290893555,-1.961153507232666,-0.7960923314094543
1738564670.476325,-0.16572526097297668,0.2636656165122986,0.24449509382247925,-0.8417407870292664,-2.1860506534576416,-0.847438633441925
1738564670.495928,-0.12337905168533325,0.2983848452568054,0.2612627148628235,-1.0362688302993774,-2.318169593811035,-0.8434552550315857
1738564670.515579,-0.063636414706707,0.32663100957870483,0.2605134844779968,-1.2870625257492065,-2.2130792140960693,-0.7927079200744629
1738564670.535584,0.0034047402441501617,0.3512498736381531,0.2650309205055237,-1.5544883012771606,-1.9714306592941284,-0.6795572638511658
1738564670.555671,0.00022421963512897491,0.35915833711624146,0.2595725655555725,-1.8207859992980957,-1.8059426546096802,-0.6862757205963135
1738564670.575696,-0.016028612852096558,0.38189899921417236,0.23774421215057373,-1.988341212272644,-1.9301124811172485,-0.7172117829322815
1738564670.595973,0.0049843499436974525,0.3567574620246887,0.17707104980945587,-1.9872796535491943,-2.4073519706726074,-0.7554903030395508
1738564670.615614,0.03883281350135803,0.3673662543296814,0.1289832592010498,-1.9604105949401855,-2.7960033416748047,-0.7724841833114624
1738564670.635477,0.08042070269584656,0.3983308672904968,0.12181496620178223,-2.066765308380127,-2.743070602416992,-0.6522539854049683
1738564670.65617,0.13349801301956177,0.4177234172821045,0.07110831141471863,-2.1145987510681152,-2.7211146354675293,-0.40843474864959717
1738564670.675593,0.1533048152923584,0.41490209102630615,0.05901828408241272,-2.2074739933013916,-2.7690908908843994,-0.21964040398597717
1738564670.696667,0.09528239816427231,0.4085898995399475,0.030241966247558594,-2.3684661388397217,-2.6477460861206055,-0.2426384687423706
1738564670.7158341,0.05786803364753723,0.4265632629394531,-0.007013797760009766,-2.534198045730591,-2.427396059036255,-0.31428781151771545
1738564670.735375,0.12002977728843689,0.4323299527168274,-0.0938677191734314,-2.415529727935791,-2.4358155727386475,-0.19375793635845184
1738564670.755395,0.21583986282348633,0.4305363893508911,-0.09972500801086426,-2.311650037765503,-2.674994707107544,0.0981946662068367
1738564670.7754822,0.25815147161483765,0.4254429340362549,-0.06775414943695068,-2.4102180004119873,-2.623077869415283,0.47394415736198425
1738564670.797933,0.24138234555721283,0.4485662579536438,-0.06072896718978882,-2.6196656227111816,-2.411726713180542,0.7886109948158264
1738564670.81533,0.18183106184005737,0.47190892696380615,-0.15474891662597656,-2.6021690368652344,-2.3479702472686768,0.9466235637664795
1738564670.835154,0.14090532064437866,0.44025957584381104,-0.2832813262939453,-2.18949294090271,-2.6312031745910645,1.0142827033996582
1738564670.855276,0.22811490297317505,0.3839048147201538,-0.3197067975997925,-1.6392215490341187,-3.367732048034668,1.2896952629089355
1738564670.8753161,0.3356572687625885,0.4315924644470215,-0.2852219343185425,-1.2526453733444214,-4.119242191314697,1.867272973060608
1738564670.8954492,0.38697201013565063,0.4754180908203125,-0.2872769832611084,-1.241538643836975,-4.357448577880859,2.627678871154785
1738564670.915529,0.3159950375556946,0.42460763454437256,-0.4180527329444885,-1.1805779933929443,-3.9245998859405518,3.253758192062378
1738564670.935178,0.16954928636550903,0.38511401414871216,-0.5274175405502319,-0.948775589466095,-3.3567471504211426,3.5501651763916016
1738564670.9562159,0.04745906591415405,0.31590327620506287,-0.5371122360229492,-0.7091966867446899,-3.0205397605895996,3.630167007446289
1738564670.9751391,-0.05540663003921509,0.253645658493042,-0.5103614330291748,-0.5054486393928528,-2.6966888904571533,3.5977296829223633
1738564670.997731,-0.09806352853775024,0.18530070781707764,-0.47323668003082275,-0.49767184257507324,-2.4030065536499023,3.518887519836426
1738564671.015244,-0.14178204536437988,0.0985327661037445,-0.4865407347679138,-0.4666197597980499,-1.799716591835022,3.3557546138763428
1738564671.035067,-0.19717341661453247,0.016592413187026978,-0.532545804977417,-0.3953496217727661,-1.2193156480789185,3.0218636989593506
1738564671.056487,-0.18515974283218384,-0.023949846625328064,-0.558357834815979,-0.20185139775276184,-0.8858416676521301,2.7390153408050537
1738564671.074987,-0.14707493782043457,-0.03677700459957123,-0.6155829429626465,0.17018276453018188,-0.8744391798973083,2.5863075256347656
1738564671.096122,-0.08039945363998413,-0.03406830132007599,-0.5949684381484985,0.5252940654754639,-0.931459903717041,2.5670363903045654
1738564671.115193,-0.012687265872955322,-0.03775778040289879,-0.48251423239707947,0.5835486650466919,-0.9314602017402649,2.7008326053619385
1738564671.1353002,-0.08186882734298706,-0.040035679936409,-0.48586052656173706,0.6997291445732117,-0.9111790060997009,2.6242029666900635
1738564671.154787,-0.14627575874328613,-0.047215282917022705,-0.5687734484672546,1.0194385051727295,-0.8035925626754761,2.346168041229248
1738564671.175043,-0.14151930809020996,-0.07666456699371338,-0.5397183895111084,1.331565260887146,-0.604099690914154,2.080965757369995
1738564671.196727,-0.11514031887054443,-0.05062386393547058,-0.3882344663143158,1.3641868829727173,-0.5018589496612549,1.9206830263137817
1738564671.21483,-0.07971149682998657,-0.027256011962890625,-0.29716724157333374,1.2370973825454712,-0.5544037222862244,1.752453088760376
1738564671.2347999,-0.009471595287322998,0.00984606146812439,-0.3512481451034546,1.2934621572494507,-0.6049460172653198,1.719346046447754
1738564671.256789,0.04061782360076904,0.033686697483062744,-0.4163975715637207,1.5485146045684814,-0.4076350927352905,1.854186773300171
1738564671.2747889,0.0027108192443847656,0.020147964358329773,-0.35081201791763306,1.6010464429855347,-0.10754241794347763,1.90440034866333
1738564671.294623,-0.07070612907409668,0.0003724992275238037,-0.3594265878200531,1.6666574478149414,0.0524071604013443,1.75200355052948
1738564671.3147001,-0.08959680795669556,0.01671844720840454,-0.35208356380462646,1.7518341541290283,0.15134213864803314,1.773668885231018
1738564671.334758,-0.1589934229850769,0.03783723711967468,-0.283241868019104,1.7809031009674072,0.30897271633148193,1.829710841178894
1738564671.354873,-0.24939870834350586,0.006302088499069214,-0.19185397028923035,1.58635413646698,0.5394306182861328,1.5666778087615967
1738564671.3750339,-0.2364351749420166,-0.04103952646255493,-0.22400081157684326,1.4857289791107178,0.37279975414276123,1.2486810684204102
1738564671.394661,-0.19998270273208618,-0.009807974100112915,-0.32389187812805176,1.7301746606826782,-0.06775093823671341,1.1566778421401978
1738564671.414716,-0.18329626321792603,0.027783900499343872,-0.4156936705112457,2.212212324142456,-0.6447733044624329,1.27434241771698
1738564671.434754,-0.26754671335220337,0.022655218839645386,-0.364949107170105,2.5640134811401367,-0.9176838397979736,1.2042663097381592
1738564671.4562678,-0.34779077768325806,0.026547253131866455,-0.2508896589279175,2.495987892150879,-0.8246854543685913,0.8472386598587036
1738564671.474545,-0.3225356340408325,0.06942301988601685,-0.24720215797424316,2.3611905574798584,-0.5286198258399963,0.5416794419288635
1738564671.4945621,-0.28520387411117554,0.10263234376907349,-0.3242039084434509,2.4927818775177,-0.09606819599866867,0.45448097586631775
1738564671.514512,-0.2802063822746277,0.12320229411125183,-0.27161166071891785,2.5225658416748047,0.1684894859790802,0.39035969972610474
1738564671.53438,-0.339036226272583,0.12417382001876831,-0.17218813300132751,2.4734129905700684,0.21422681212425232,0.18263453245162964
1738564671.556984,-0.28710126876831055,0.13399392366409302,-0.1479697823524475,2.414280414581299,0.10526365041732788,-0.012500138953328133
1738564671.5748,-0.22293442487716675,0.15911990404129028,-0.20385277271270752,2.5543763637542725,-0.08016073703765869,-0.01179312914609909
1738564671.596336,-0.2256302833557129,0.1812492161989212,-0.21233755350112915,2.778872013092041,-0.23051588237285614,0.012165462598204613
1738564671.6146479,-0.24621570110321045,0.18790176510810852,-0.09506213665008545,2.7181649208068848,-0.27931684255599976,-0.0796612948179245
1738564671.6344728,-0.2082068920135498,0.19644370675086975,-0.0726022720336914,2.6153206825256348,-0.26849648356437683,-0.20190510153770447
1738564671.6561909,-0.16865205764770508,0.18775899708271027,-0.10870468616485596,2.6425039768218994,-0.2628159821033478,-0.2823013961315155
1738564671.6742802,-0.2036781907081604,0.18622785806655884,-0.08699291944503784,2.7549479007720947,-0.45451393723487854,-0.4160137474536896
1738564671.694207,-0.21077120304107666,0.1986457109451294,-0.04167050123214722,2.822796583175659,-0.7573753595352173,-0.5850732922554016
1738564671.714284,-0.11301028728485107,0.23209363222122192,-0.009554237127304077,2.791499376296997,-0.9954321384429932,-0.6307632327079773
1738564671.734254,0.014876842498779297,0.24689459800720215,-0.02372601628303528,2.687333822250366,-0.6724293828010559,-0.4900721311569214
1738564671.7544398,0.040592312812805176,0.23016482591629028,-0.033774733543395996,2.551119089126587,0.011586768552660942,-0.3472755551338196
1738564671.774101,-0.0626143217086792,0.19877755641937256,-0.019649803638458252,2.526731014251709,0.29745712876319885,-0.38880622386932373
1738564671.7942119,-0.108448326587677,0.18938040733337402,0.024709612131118774,2.5157835483551025,0.15923960506916046,-0.47448864579200745
1738564671.81441,-0.0933607816696167,0.17441979050636292,0.06555530428886414,2.499392509460449,-0.1610485315322876,-0.4670524001121521
1738564671.8345919,-0.10462486743927002,0.1669650375843048,0.08504742383956909,2.425743579864502,-0.34296536445617676,-0.4830571413040161
1738564671.857294,-0.16899430751800537,0.155976802110672,0.09221410751342773,2.25644850730896,-0.1679650992155075,-0.578711748123169
1738564671.874187,-0.20829594135284424,0.13738253712654114,0.09346902370452881,2.0948150157928467,0.12055899202823639,-0.7339448928833008
1738564671.8940601,-0.2727372646331787,0.11207109689712524,0.13645637035369873,1.9414993524551392,0.3318876028060913,-0.9890047311782837
1738564671.914009,-0.27861398458480835,0.09491932392120361,0.1444876790046692,1.8975679874420166,0.33994773030281067,-1.2065151929855347
1738564671.9341512,-0.24925774335861206,0.11046910285949707,0.12713328003883362,1.870113730430603,0.2561975121498108,-1.3211873769760132
1738564671.9574242,-0.23911064863204956,0.12040665745735168,0.12434828281402588,1.8183512687683105,0.306951105594635,-1.354584813117981
1738564671.974156,-0.2335219383239746,0.11551576852798462,0.10769873857498169,1.8123652935028076,0.3912069499492645,-1.3736318349838257
1738564671.9940429,-0.2363390326499939,0.09856319427490234,0.12692245841026306,1.7414498329162598,0.37798598408699036,-1.4668692350387573
1738564672.014231,-0.2525063753128052,0.08400195837020874,0.20767104625701904,1.5285136699676514,0.32506871223449707,-1.6376745700836182
1738564672.034185,-0.2613825798034668,0.08290174603462219,0.21406126022338867,1.3951524496078491,0.2791984975337982,-1.8396286964416504
1738564672.0543199,-0.2760359048843384,0.09192228317260742,0.18854299187660217,1.3418463468551636,0.11097067594528198,-2.0694174766540527
1738564672.07426,-0.20546597242355347,0.11331218481063843,0.17444995045661926,1.2944751977920532,0.01596740260720253,-2.1768102645874023
1738564672.093871,-0.1685672402381897,0.13339853286743164,0.16720092296600342,1.2405986785888672,0.12488090991973877,-2.2033276557922363
1738564672.1137471,-0.1344696283340454,0.14852988719940186,0.14618313312530518,1.2025278806686401,0.2856867015361786,-2.2230076789855957
1738564672.133817,-0.11559778451919556,0.1615878939628601,0.17440080642700195,1.1073988676071167,0.3485099971294403,-2.2025418281555176
1738564672.15387,-0.09777849912643433,0.1649072766304016,0.23658782243728638,0.9023867249488831,0.2864713966846466,-2.210905075073242
1738564672.173836,-0.03310805559158325,0.16378653049468994,0.24939653277397156,0.7013140916824341,0.28487154841423035,-2.1344316005706787
1738564672.193819,0.027514278888702393,0.18166571855545044,0.2279565930366516,0.5573917031288147,0.35961005091667175,-1.967858910560608
1738564672.213554,0.0019568800926208496,0.18942636251449585,0.18384814262390137,0.5149291157722473,0.3874092698097229,-1.8521236181259155
1738564672.233564,-0.06363272666931152,0.18639755249023438,0.14292484521865845,0.6224251389503479,0.20700126886367798,-1.9508529901504517
1738564672.253864,-0.053351759910583496,0.17901796102523804,0.1364966630935669,0.708599328994751,0.006539943628013134,-2.0143375396728516
1738564672.273851,0.018409758806228638,0.21065038442611694,0.2318108081817627,0.520846962928772,-0.05006668344140053,-1.876747488975525
1738564672.293693,0.11068817973136902,0.21460950374603271,0.2943347096443176,0.2221604287624359,-0.05724296346306801,-1.5508681535720825
1738564672.3140988,0.11299142241477966,0.23111122846603394,0.2027164101600647,0.15608321130275726,-0.22702248394489288,-1.2963595390319824
1738564672.333509,-0.0027755796909332275,0.20298200845718384,0.1187223345041275,0.29728832840919495,-0.3768515884876251,-1.3759925365447998
1738564672.357003,-0.00021567940711975098,0.18485265970230103,0.11528719961643219,0.37368708848953247,-0.5476415157318115,-1.504060983657837
1738564672.3741999,0.06074398756027222,0.21073544025421143,0.17532077431678772,0.23124192655086517,-0.5698358416557312,-1.4530304670333862
1738564672.3936381,0.12689968943595886,0.21188586950302124,0.2164372354745865,-0.056138716638088226,-0.3849034607410431,-1.2909406423568726
1738564672.413604,0.15315887331962585,0.20424193143844604,0.23283566534519196,-0.3824201226234436,-0.13163624703884125,-1.106403112411499
1738564672.433413,0.08490003645420074,0.17427611351013184,0.12954016029834747,-0.4191502034664154,-0.0375906340777874,-1.123612642288208
1738564672.453445,-0.010720357298851013,0.13199257850646973,0.029615134000778198,-0.17513103783130646,-0.034890785813331604,-1.390442967414856
1738564672.473638,0.04353669285774231,0.13865995407104492,0.09356588125228882,-0.1697930097579956,0.08216241002082825,-1.48158860206604
1738564672.493734,0.13907858729362488,0.164539635181427,0.196135476231575,-0.40535813570022583,0.28286129236221313,-1.3127753734588623
1738564672.5142589,0.19926457107067108,0.1583874225616455,0.19815030694007874,-0.6054747700691223,0.40055564045906067,-1.043208122253418
1738564672.533325,0.18139323592185974,0.14179295301437378,0.17413437366485596,-0.7061232924461365,0.28413161635398865,-0.9026936292648315
1738564672.5533972,0.08673422783613205,0.10021650791168213,0.08519315719604492,-0.5370933413505554,0.0439193993806839,-1.0194683074951172
1738564672.5732222,0.10289298743009567,0.08579748868942261,0.05569210648536682,-0.37859126925468445,-0.2448032647371292,-1.1219831705093384
1738564672.5932798,0.18283861875534058,0.0796402096748352,0.1241493821144104,-0.41718754172325134,-0.2723669707775116,-1.0089833736419678
1738564672.614058,0.2506825923919678,0.09429311752319336,0.1335355043411255,-0.5031027793884277,-0.29435911774635315,-0.7263900637626648
1738564672.633328,0.28790798783302307,0.09514063596725464,0.11743846535682678,-0.5857203006744385,-0.07546783238649368,-0.38409069180488586
1738564672.653202,0.27902206778526306,0.0825423002243042,0.0871952474117279,-0.6384353637695312,0.059523068368434906,-0.0826299786567688
1738564672.674361,0.22979797422885895,0.051821887493133545,0.015727609395980835,-0.5148236751556396,0.10903609544038773,0.06120993569493294
1738564672.6935449,0.1413758099079132,-0.027376115322113037,-0.05296677350997925,-0.3245716392993927,0.07393582910299301,-0.111873097717762
