timestamp,acc_x,acc_y,acc_z,rot_x,rot_y,rot_z
1738564645.370441,0.07470090687274933,-0.15993189811706543,0.09438061714172363,0.20822584629058838,-1.0304635763168335,-0.0032361941412091255
1738564645.371222,0.06912913918495178,-0.12246066331863403,-0.0346410870552063,0.5054762363433838,-1.0094897747039795,0.29343900084495544
1738564645.376268,0.015063747763633728,-0.15632188320159912,-0.1325586438179016,0.9256876707077026,-1.1479442119598389,0.45874401926994324
1738564645.394774,-0.12424160540103912,-0.1581183671951294,-0.1363116353750229,1.3088277578353882,-1.4217028617858887,0.3873354196548462
1738564645.415158,-0.17113496363162994,-0.18917137384414673,-0.08924197405576706,1.5664663314819336,-1.7472106218338013,0.31172189116477966
1738564645.4346719,-0.17173215746879578,-0.18823999166488647,0.01899128407239914,1.5695693492889404,-1.9578064680099487,0.24737823009490967
1738564645.454896,-0.24271568655967712,-0.12998777627944946,0.2004515528678894,1.1658823490142822,-1.4661604166030884,0.10402707755565643
1738564645.476416,-0.3224937319755554,-0.08340907096862793,0.3567652106285095,0.4962935149669647,-0.6917014122009277,-0.11751729995012283
1738564645.494803,-0.3128272593021393,-0.033354103565216064,0.30655550956726074,0.15262077748775482,-0.35524487495422363,-0.2696325480937958
1738564645.515053,-0.25682464241981506,-0.00846332311630249,0.23962020874023438,0.12929891049861908,-0.5308106541633606,-0.24468015134334564
1738564645.5350618,-0.2557266354560852,0.007403314113616943,0.23507976531982422,0.16569063067436218,-1.1533726453781128,-0.29797250032424927
1738564645.554706,-0.31102243065834045,0.043393492698669434,0.2275146245956421,0.28002843260765076,-1.7619264125823975,-0.5043924450874329
1738564645.574914,-0.2765335142612457,0.11494255065917969,0.22641050815582275,0.38714057207107544,-2.1457149982452393,-0.6360862851142883
1738564645.594802,-0.18014372885227203,0.1767646074295044,0.26690781116485596,0.32267433404922485,-2.419222354888916,-0.647128164768219
1738564645.614977,-0.09437821805477142,0.24186545610427856,0.3148595094680786,0.1201258972287178,-2.5826964378356934,-0.5396036505699158
1738564645.634698,-0.03477434813976288,0.31284546852111816,0.3395606279373169,-0.16179002821445465,-2.587364673614502,-0.38403868675231934
1738564645.655017,0.015421003103256226,0.3301510214805603,0.38802242279052734,-0.6181429624557495,-2.487916946411133,-0.31243160367012024
1738564645.674806,-0.0009964853525161743,0.3637757897377014,0.3524487018585205,-0.9739395380020142,-2.2874457836151123,-0.3525158762931824
1738564645.695078,-0.007561862468719482,0.38926148414611816,0.2884654998779297,-1.1756407022476196,-2.0585341453552246,-0.44964179396629333
1738564645.714666,0.06045214831829071,0.40433603525161743,0.284318208694458,-1.3721923828125,-1.8613346815109253,-0.39954492449760437
1738564645.735001,0.12507113814353943,0.419938325881958,0.3615529537200928,-1.7044209241867065,-1.8400294780731201,-0.27226680517196655
1738564645.754962,0.16446715593338013,0.4686972498893738,0.35648006200790405,-2.0049359798431396,-2.0242249965667725,-0.12199460715055466
1738564645.7747478,0.15676160156726837,0.4942139983177185,0.3222975730895996,-2.2822513580322266,-1.956575870513916,-0.046230532228946686
1738564645.794594,0.1511402279138565,0.4963972568511963,0.2670345902442932,-2.484917640686035,-1.8595008850097656,-0.057765427976846695
1738564645.8145552,0.16110526025295258,0.5160731077194214,0.21005810797214508,-2.5469751358032227,-1.985640525817871,-0.06709952652454376
1738564645.8358479,0.22536933422088623,0.5535857677459717,0.18139833211898804,-2.562082529067993,-2.2130675315856934,0.07140422612428665
1738564645.854568,0.28723907470703125,0.5770721435546875,0.18355122208595276,-2.6638615131378174,-2.360839605331421,0.36494314670562744
1738564645.878214,0.29890745878219604,0.6165667176246643,0.16901832818984985,-2.7852721214294434,-2.3283190727233887,0.6884171962738037
1738564645.894866,0.2668728232383728,0.6171837449073792,0.1776883900165558,-2.983797788619995,-2.148197650909424,0.8504191637039185
1738564645.91448,0.22290177643299103,0.6291150450706482,0.17809003591537476,-3.2081522941589355,-2.154693841934204,0.8756440281867981
1738564645.934422,0.22461411356925964,0.6750624179840088,0.12306016683578491,-3.3879165649414062,-2.2780115604400635,0.8864946365356445
1738564645.954598,0.2534925639629364,0.7462514042854309,0.09517112374305725,-3.6947999000549316,-2.1883044242858887,0.9303079843521118
1738564645.978236,0.2840437889099121,0.8486719727516174,0.01714611053466797,-4.028273105621338,-2.056809186935425,1.071121335029602
1738564645.994652,0.3074256479740143,0.9678136706352234,-0.220345139503479,-4.172150135040283,-2.0622639656066895,1.3778808116912842
1738564646.014298,0.3703467547893524,0.9706902503967285,-0.4918597936630249,-3.950829029083252,-2.020155668258667,1.92577064037323
1738564646.034131,0.3768022060394287,0.8991827368736267,-0.6528843641281128,-3.582343101501465,-1.9077236652374268,2.492809534072876
1738564646.053998,0.2867910861968994,0.8811049461364746,-0.7376804351806641,-3.259538173675537,-1.872570514678955,2.734020709991455
1738564646.07409,0.22627896070480347,0.7994888424873352,-0.8215813636779785,-2.9691646099090576,-1.563297152519226,2.77724552154541
1738564646.0939379,0.35637855529785156,0.6264907121658325,-0.8792054057121277,-2.507110357284546,-1.293858289718628,3.0720839500427246
1738564646.113822,0.3581228256225586,0.5964502096176147,-0.8886643648147583,-2.117511034011841,-1.2446348667144775,3.3723602294921875
1738564646.1337008,0.3129434585571289,0.5160084962844849,-0.9645536541938782,-1.6228177547454834,-1.2618601322174072,3.5439469814300537
1738564646.1541948,0.3184085488319397,0.3413977026939392,-1.0526463985443115,-0.8525405526161194,-1.3597952127456665,3.768308401107788
1738564646.1742291,0.22229355573654175,0.3524528741836548,-1.0126930475234985,-0.22188079357147217,-1.5695152282714844,3.9426629543304443
1738564646.194296,0.19070571660995483,0.28888657689094543,-1.0300496816635132,0.33035677671432495,-1.3670176267623901,4.202351093292236
1738564646.214243,0.13498222827911377,0.26548779010772705,-1.0718157291412354,0.939543604850769,-1.0679395198822021,4.47070837020874
1738564646.234926,0.05574381351470947,0.202114999294281,-1.1261414289474487,1.674880862236023,-0.9583920240402222,4.8416428565979
1738564646.254428,-0.08228248357772827,0.21359381079673767,-1.1274516582489014,2.4638750553131104,-1.015733242034912,5.26189661026001
1738564646.277646,-0.37861770391464233,0.29571789503097534,-0.9075896143913269,2.7770588397979736,-0.9723346829414368,5.367763519287109
1738564646.2952352,-0.741740345954895,0.1829260140657425,-0.5390175580978394,2.2742114067077637,-0.5096552968025208,4.73996114730835
1738564646.3143601,-0.8753911852836609,0.007647722959518433,-0.4749568700790405,1.5167046785354614,0.8380558490753174,3.7321929931640625
1738564646.334351,-0.8604262471199036,-0.07543915510177612,-0.5800223350524902,0.9882814288139343,2.132077217102051,2.802419900894165
1738564646.35391,-0.6364403367042542,0.0013624131679534912,-0.8065518736839294,1.2648522853851318,1.8053594827651978,2.6272401809692383
1738564646.375599,-0.5884215235710144,0.01716381311416626,-1.1137347221374512,2.7847959995269775,0.47807639837265015,2.8735082149505615
1738564646.396034,-0.5638874769210815,0.11849871277809143,-0.9472554326057434,3.717083215713501,-0.672563910484314,2.697542190551758
1738564646.414038,-0.5854618549346924,0.1899685561656952,-0.6708382368087769,3.7770378589630127,-1.173938274383545,2.4094154834747314
1738564646.4338598,-0.798578143119812,0.24559548497200012,-0.6004970073699951,3.843099594116211,-1.4643546342849731,1.9782007932662964
1738564646.454134,-0.9211450219154358,0.19388657808303833,-0.5700411796569824,3.990536689758301,-1.7621171474456787,1.0757659673690796
1738564646.474156,-0.7718183994293213,0.2122950255870819,-0.5544383525848389,3.9125468730926514,-1.6918599605560303,0.11733688414096832
1738564646.493833,-0.5306339263916016,0.34100133180618286,-0.6738654971122742,3.9880311489105225,-0.9813730716705322,-0.35359299182891846
1738564646.5138888,-0.34499555826187134,0.5024918913841248,-0.7792239785194397,4.394463062286377,-0.3362322747707367,-0.25472283363342285
1738564646.5336928,-0.3277258276939392,0.5974875688552856,-0.6413034796714783,4.660460948944092,-0.08691080659627914,-0.1334470808506012
1738564646.553555,-0.35940951108932495,0.5826128721237183,-0.4358781576156616,4.684435844421387,-0.28753697872161865,-0.26584121584892273
1738564646.573711,-0.34769004583358765,0.5630950927734375,-0.33931493759155273,4.726844787597656,-0.6209701299667358,-0.4558265805244446
1738564646.5936651,-0.3558770418167114,0.5928340554237366,-0.2464548945426941,4.664444923400879,-0.8813776969909668,-0.6376698613166809
1738564646.613822,-0.33538615703582764,0.5938391089439392,-0.1993710994720459,4.6295952796936035,-0.8268682360649109,-0.6809980273246765
1738564646.635325,-0.3261529207229614,0.6037735939025879,-0.08785867691040039,4.437751293182373,-0.6699435114860535,-0.7675830721855164
1738564646.653596,-0.3340500593185425,0.569215714931488,0.04952883720397949,4.106954097747803,-0.4429527819156647,-0.981617271900177
1738564646.673553,-0.39899206161499023,0.5416117906570435,0.10426557064056396,3.8966307640075684,-0.4897720217704773,-1.3474345207214355
1738564646.6938272,-0.37865614891052246,0.5351349115371704,0.19419163465499878,3.718721389770508,-0.8173009157180786,-1.6478830575942993
1738564646.713877,-0.31368809938430786,0.5333133339881897,0.2611515522003174,3.5214908123016357,-1.0860280990600586,-1.8236243724822998
1738564646.7349339,-0.1941555142402649,0.5364875197410583,0.308859646320343,3.2117137908935547,-1.1574684381484985,-1.8584365844726562
1738564646.753475,-0.15448898077011108,0.5278401970863342,0.3219994604587555,2.8704779148101807,-1.1056958436965942,-1.8902342319488525
1738564646.773401,-0.221235454082489,0.5244492292404175,0.32105371356010437,2.5835158824920654,-1.2309850454330444,-1.9995461702346802
1738564646.795141,-0.2401655912399292,0.4992530345916748,0.3235410451889038,2.3028790950775146,-1.462899088859558,-2.198976516723633
1738564646.8134398,-0.1892554759979248,0.47054195404052734,0.3199074864387512,1.9487364292144775,-1.4603620767593384,-2.349261522293091
1738564646.834395,-0.162786602973938,0.47741633653640747,0.26118165254592896,1.6646044254302979,-1.3390356302261353,-2.445800304412842
1738564646.853317,-0.12591546773910522,0.47196096181869507,0.24208331108093262,1.3636128902435303,-1.2419923543930054,-2.5424840450286865
1738564646.873026,-0.07211726903915405,0.4712635278701782,0.2484802007675171,1.0511959791183472,-1.3025388717651367,-2.546252965927124
1738564646.894506,-0.028751671314239502,0.4917757511138916,0.21483087539672852,0.8559898734092712,-1.4371111392974854,-2.47157621383667
1738564646.913635,0.04655039310455322,0.5089411735534668,0.22396910190582275,0.6391600966453552,-1.428115725517273,-2.3083107471466064
1738564646.935306,0.12030497193336487,0.5018068552017212,0.287092924118042,0.27428770065307617,-1.3253040313720703,-2.1168248653411865
1738564646.9531898,0.15527954697608948,0.50013667345047,0.26681017875671387,-0.04395367577672005,-1.2063285112380981,-2.0017335414886475
1738564646.973352,0.1615275740623474,0.5091125965118408,0.23075829446315765,-0.23461230099201202,-0.9540663957595825,-1.9920384883880615
1738564646.9952312,0.20209723711013794,0.5157464146614075,0.22419774532318115,-0.43600982427597046,-0.7109537720680237,-1.987593412399292
1738564647.013183,0.25550544261932373,0.49339884519577026,0.21613967418670654,-0.5829732418060303,-0.5469126105308533,-1.9184045791625977
1738564647.034813,0.29900774359703064,0.482307493686676,0.20963573455810547,-0.6722744107246399,-0.5240005850791931,-1.7574479579925537
1738564647.0531359,0.3798161745071411,0.4569181799888611,0.1920241117477417,-0.7180991172790527,-0.6073802709579468,-1.432478904724121
1738564647.072932,0.4640306830406189,0.3876625895500183,0.20991158485412598,-0.8123162984848022,-0.7783226370811462,-0.9429959058761597
1738564647.09276,0.4219808578491211,0.35933059453964233,0.17195957899093628,-0.8460191488265991,-0.8618448972702026,-0.5516446232795715
1738564647.113152,0.31069329380989075,0.31655067205429077,0.174324631690979,-0.9515528082847595,-0.6902719140052795,-0.46134811639785767
1738564647.133889,0.277122437953949,0.24481236934661865,0.12203377485275269,-1.0014878511428833,-0.36963769793510437,-0.46122056245803833
1738564647.153449,0.2868369221687317,0.20075219869613647,0.07925295829772949,-0.9998717308044434,-0.07061915099620819,-0.4053795039653778
1738564647.173338,0.2697020173072815,0.163537859916687,0.09265715628862381,-1.0919452905654907,0.13409122824668884,-0.3988463878631592
1738564647.19486,0.22791820764541626,0.10187423229217529,0.04707814007997513,-1.08156156539917,0.3123284876346588,-0.4516015946865082
1738564647.2129378,0.24271896481513977,0.04188913106918335,0.01029176265001297,-1.0187734365463257,0.32988405227661133,-0.4345749616622925
1738564647.2330751,0.2780390679836273,0.010302364826202393,0.05041511356830597,-1.0083316564559937,0.21228457987308502,-0.32507309317588806
1738564647.252912,0.2657063603401184,-0.0026134252548217773,0.015516266226768494,-0.911340594291687,0.12774807214736938,-0.19026513397693634
1738564647.272898,0.21943308413028717,-0.01845639944076538,0.02354636788368225,-0.8758228421211243,0.04441241919994354,-0.16688977181911469
1738564647.295264,0.2208074927330017,-0.04305827617645264,0.012561023235321045,-0.8505814671516418,0.10665848106145859,-0.11759386211633682
1738564647.3128572,0.22903653979301453,-0.052378296852111816,-0.022610768675804138,-0.7629744410514832,0.23111186921596527,-0.02048288658261299
1738564647.334805,0.2101735919713974,-0.04093056917190552,-0.002885758876800537,-0.7334840297698975,0.3001064658164978,0.0553596056997776
1738564647.352781,0.2249225229024887,-0.05696451663970947,-0.0754551887512207,-0.5581598281860352,0.45596757531166077,0.1644619107246399
