timestamp,acc_x,acc_y,acc_z,rot_x,rot_y,rot_z
1738564620.5448399,-0.10675037652254105,-0.1572558879852295,-0.10626272857189178,1.2377710342407227,-1.3823096752166748,0.07288766652345657
1738564620.546224,-0.24309274554252625,-0.060881853103637695,-0.05846373736858368,1.4679316282272339,-2.039361000061035,-0.13985881209373474
1738564620.548252,-0.17001932859420776,-0.1612347960472107,-0.1335316151380539,1.6912617683410645,-2.194387197494507,-0.22198735177516937
1738564620.568459,-0.13406389951705933,-0.18527299165725708,-0.14835214614868164,1.8419395685195923,-2.165100574493408,-0.15564443171024323
1738564620.588334,-0.2331448793411255,-0.12404811382293701,-0.05242431163787842,1.8625763654708862,-1.4766075611114502,-0.15789523720741272
1738564620.608315,-0.3240758180618286,-0.12629234790802002,0.22221505641937256,1.3257478475570679,-0.5361331701278687,-0.22189562022686005
1738564620.630597,-0.3699330687522888,-0.1184425950050354,0.2980978488922119,0.9019535779953003,-0.4940672516822815,-0.36335286498069763
1738564620.6486259,-0.38348591327667236,-0.11033445596694946,0.3000655174255371,0.7625207901000977,-0.946577787399292,-0.555844247341156
1738564620.6687078,-0.32262054085731506,-0.04516178369522095,0.26041674613952637,0.7796050310134888,-1.5869781970977783,-0.6152819991111755
1738564620.6887631,-0.2389715015888214,0.03560280799865723,0.264095664024353,0.8018186688423157,-1.9115581512451172,-0.5006881356239319
1738564620.708605,-0.22113195061683655,0.09151226282119751,0.28385818004608154,0.7389732599258423,-2.0483837127685547,-0.41921693086624146
1738564620.7314482,-0.1874365508556366,0.15106207132339478,0.3854414224624634,0.501068651676178,-2.0356497764587402,-0.4106437563896179
1738564620.7490249,-0.19482532143592834,0.22687238454818726,0.48189806938171387,0.044998086988925934,-1.993820071220398,-0.44447770714759827
1738564620.76859,-0.18219684064388275,0.27405214309692383,0.4352989196777344,-0.24067571759223938,-2.1187713146209717,-0.527646005153656
1738564620.788381,-0.12118011713027954,0.32220494747161865,0.4252750873565674,-0.42024895548820496,-2.3186540603637695,-0.5161910057067871
1738564620.808383,-0.058224260807037354,0.3744744658470154,0.4466845989227295,-0.7034974694252014,-2.5136044025421143,-0.38644281029701233
1738564620.833425,0.015771856531500816,0.43736815452575684,0.42319560050964355,-0.954583466053009,-2.750279426574707,-0.1299367994070053
1738564620.848711,0.016975972801446915,0.5121954679489136,0.3884127140045166,-1.1833350658416748,-2.956604242324829,0.15113183856010437
1738564620.868501,-0.034457676112651825,0.5636555552482605,0.34241431951522827,-1.3653539419174194,-2.9946470260620117,0.23734508454799652
1738564620.8883529,-0.006701990962028503,0.5925261974334717,0.2945610284805298,-1.4512840509414673,-3.109299898147583,0.27754929661750793
1738564620.9087281,0.10602405667304993,0.6161035299301147,0.3179429769515991,-1.6237664222717285,-3.2461297512054443,0.5147127509117126
1738564620.9286408,0.10542824864387512,0.6699580550193787,0.3655697703361511,-2.118267059326172,-3.210845708847046,0.748058021068573
1738564620.948615,0.04441685602068901,0.7364382147789001,0.3195767402648926,-2.6932923793792725,-2.834449529647827,0.8418406844139099
1738564620.968498,0.0783936008810997,0.7709779143333435,0.20643670856952667,-3.080826759338379,-2.4485177993774414,0.9878695607185364
1738564620.988429,0.15522465109825134,0.7771018743515015,0.09012570977210999,-3.2326300144195557,-2.3877670764923096,1.322581171989441
1738564621.0081592,0.18037892878055573,0.732153594493866,-0.056242436170578,-3.049575090408325,-2.7261860370635986,1.7815320491790771
1738564621.031567,0.12488427758216858,0.7323011159896851,-0.08537551760673523,-2.772824764251709,-3.120929002761841,2.1405210494995117
1738564621.048701,0.07035127282142639,0.7715058922767639,-0.048304855823516846,-2.858426332473755,-3.2986996173858643,2.397669792175293
1738564621.068197,-0.055602431297302246,0.8142917156219482,-0.16115373373031616,-3.3119308948516846,-2.930989980697632,2.4962947368621826
1738564621.088124,-0.04349491000175476,0.7585901021957397,-0.3795274496078491,-3.6347148418426514,-2.200813055038452,2.389127731323242
1738564621.108201,0.023206233978271484,0.722383975982666,-0.5176675915718079,-3.7799925804138184,-1.5517737865447998,2.317089557647705
1738564621.128226,0.061553627252578735,0.7104463577270508,-0.6055690050125122,-3.9499447345733643,-1.288930892944336,2.364258289337158
1738564621.148439,0.10798853635787964,0.6701899170875549,-0.8616558313369751,-3.6344878673553467,-1.3609323501586914,2.5861709117889404
1738564621.1684232,0.17674994468688965,0.5572810769081116,-1.125091791152954,-2.3869104385375977,-1.8276946544647217,2.973707914352417
1738564621.1888142,0.20065152645111084,0.495432049036026,-1.0184974670410156,-1.209999680519104,-2.268054485321045,3.343801975250244
1738564621.207855,0.18779247999191284,0.4668191969394684,-0.8747757077217102,-0.7991248369216919,-2.2349395751953125,3.6081762313842773
1738564621.228064,0.18331444263458252,0.40365126729011536,-0.9406332969665527,-0.40078988671302795,-1.8907861709594727,3.803400993347168
1738564621.247925,0.1655644178390503,0.3507891893386841,-1.1069071292877197,0.4190356135368347,-2.112452745437622,3.998605251312256
1738564621.26805,-0.011261999607086182,0.3473147749900818,-1.407325267791748,1.9410947561264038,-2.7841570377349854,3.9220187664031982
1738564621.290386,0.08828473091125488,0.3159297704696655,-1.5178334712982178,3.788382053375244,-3.371739625930786,3.8368663787841797
1738564621.307914,0.2992575764656067,0.43016570806503296,-1.4431501626968384,5.274534225463867,-3.0856852531433105,4.25179386138916
1738564621.327869,0.17566579580307007,0.39032673835754395,-1.1402432918548584,6.286881446838379,-1.4153741598129272,4.931585311889648
1738564621.347866,-0.5061647295951843,0.45029205083847046,-0.24619650840759277,5.520456790924072,-0.33707988262176514,4.785302639007568
1738564621.368441,-0.9428349137306213,0.18694037199020386,0.14295712113380432,4.00056266784668,-0.2689664959907532,3.9338762760162354
1738564621.390399,-1.013526439666748,-0.19097614288330078,-0.2659672498703003,3.5687291622161865,-0.19534114003181458,3.167771577835083
1738564621.408718,-1.3816540241241455,-0.13576924800872803,-0.37513458728790283,4.016795635223389,0.6752843856811523,2.5115530490875244
1738564621.432702,-1.5762739181518555,-0.1843429058790207,-0.037873655557632446,3.6319427490234375,1.582990050315857,1.2066184282302856
1738564621.449008,-1.4714829921722412,-0.1322888731956482,0.12017741799354553,3.0158586502075195,1.648384690284729,0.0806155875325203
1738564621.468855,-1.2722954750061035,-0.10792955756187439,0.031410396099090576,2.7731246948242188,1.3068673610687256,-0.5114178657531738
1738564621.4901571,-1.169670820236206,-0.015831831842660904,-0.0077218711376190186,2.8791658878326416,1.1112812757492065,-0.805304229259491
1738564621.508727,-1.0412662029266357,0.023493798449635506,0.04690349102020264,2.8291547298431396,0.7943971753120422,-1.0354992151260376
1738564621.527886,-0.8982729911804199,0.08371081948280334,-0.043325275182724,2.7986083030700684,0.4607327878475189,-1.22194242477417
1738564621.548729,-0.8201982378959656,0.13123854994773865,-0.15812334418296814,3.0151474475860596,0.3133494555950165,-1.349381446838379
1738564621.567769,-0.7210919260978699,0.16921842098236084,-0.11703148484230042,3.2969579696655273,-0.22229783236980438,-1.5771710872650146
1738564621.58741,-0.5388418436050415,0.22993536293506622,-0.0855526328086853,3.3232805728912354,-0.839813768863678,-1.6438184976577759
1738564621.607372,-0.4140082001686096,0.2669152617454529,-0.15485233068466187,3.210888385772705,-0.692702054977417,-1.6160244941711426
1738564621.627511,-0.4887605905532837,0.275993287563324,-0.24360495805740356,3.133854627609253,-0.3802451491355896,-1.8257060050964355
1738564621.6478848,-0.40535932779312134,0.2974380850791931,-0.24826321005821228,3.198103666305542,-0.5720003843307495,-2.139195680618286
1738564621.667506,-0.2977113723754883,0.30904853343963623,-0.1560215950012207,2.877063035964966,-0.17236731946468353,-2.233156681060791
1738564621.68869,-0.31129342317581177,0.3383164703845978,-0.14810732007026672,2.5263588428497314,0.5016241073608398,-2.3542332649230957
1738564621.707387,-0.33534693717956543,0.36467719078063965,-0.12683361768722534,2.3782832622528076,0.9113166332244873,-2.4746336936950684
1738564621.7274342,-0.32198095321655273,0.39576297998428345,-0.13044869899749756,2.623589515686035,0.7087135910987854,-2.488011360168457
1738564621.7492719,-0.3272815942764282,0.4291512966156006,0.02139461040496826,2.891141891479492,0.1721925437450409,-2.51648211479187
1738564621.767758,-0.26383084058761597,0.4487270712852478,0.1928151398897171,2.7225561141967773,-0.10738151520490646,-2.5014865398406982
1738564621.789322,-0.2592090964317322,0.45339566469192505,0.3286283016204834,2.218693256378174,0.2629573941230774,-2.5342636108398438
1738564621.8074799,-0.26464736461639404,0.4506083130836487,0.4206467866897583,1.5469173192977905,0.8051486611366272,-2.658216953277588
1738564621.8274798,-0.25084662437438965,0.4480322003364563,0.41752493381500244,1.0558090209960938,0.9733743071556091,-2.780308961868286
1738564621.850446,-0.22724062204360962,0.4613505005836487,0.35233038663864136,0.8935276865959167,0.6947595477104187,-2.85107159614563
1738564621.867178,-0.1663476824760437,0.47939229011535645,0.31656235456466675,0.8445171117782593,0.41297757625579834,-2.8626811504364014
1738564621.8890061,-0.10218977928161621,0.5103392601013184,0.35580599308013916,0.6299802660942078,0.4621025323867798,-2.8015239238739014
1738564621.907213,-0.02364334464073181,0.516548216342926,0.35973650217056274,0.30052435398101807,0.537483811378479,-2.639592409133911
1738564621.927106,-0.0027637481689453125,0.5114710927009583,0.34923624992370605,-0.021489953622221947,0.5483405590057373,-2.5088515281677246
1738564621.949462,-0.04484984278678894,0.5063425898551941,0.24694347381591797,-0.14392392337322235,0.2865234911441803,-2.4763407707214355
1738564621.96717,-0.0466497540473938,0.49862515926361084,0.13834470510482788,0.08191707730293274,-0.06695453077554703,-2.553215742111206
1738564621.9892092,0.04602538049221039,0.5110577940940857,0.16584903001785278,0.17849265038967133,-0.28842291235923767,-2.4849483966827393
1738564622.006954,0.1372828334569931,0.5231459140777588,0.21889495849609375,0.046027280390262604,-0.2209652066230774,-2.1792688369750977
1738564622.027427,0.21243694424629211,0.5008792877197266,0.2521645426750183,-0.22014540433883667,-0.02191847935318947,-1.7898849248886108
1738564622.048861,0.24505232274532318,0.47393709421157837,0.23946954309940338,-0.44901713728904724,-0.057991255074739456,-1.354904294013977
1738564622.067071,0.22851675748825073,0.41513675451278687,0.14231301844120026,-0.4745621085166931,-0.36300429701805115,-1.04404616355896
1738564622.087137,0.17556270956993103,0.33713477849960327,0.10227201879024506,-0.4203696846961975,-0.4764972925186157,-0.9710396528244019
1738564622.107053,0.14719371497631073,0.3207029104232788,0.13650470972061157,-0.5074459910392761,-0.2908094525337219,-1.033292293548584
1738564622.126988,0.20696119964122772,0.2940930724143982,0.18533898890018463,-0.7710583209991455,-0.008072317577898502,-0.9834232926368713
1738564622.14958,0.25162169337272644,0.2641470432281494,0.16508613526821136,-1.039229154586792,0.20223605632781982,-0.8428298830986023
1738564622.167,0.2725987434387207,0.21965765953063965,0.08997988700866699,-1.1229112148284912,0.335178405046463,-0.6332865357398987
1738564622.188777,0.2615366578102112,0.14849352836608887,0.0039560794830322266,-0.9779326915740967,0.34175315499305725,-0.417357861995697
1738564622.206863,0.22405697405338287,0.10460913181304932,-0.018605321645736694,-0.7279757261276245,0.2158598005771637,-0.3069515824317932
1738564622.2269158,0.19273574650287628,0.08199989795684814,0.0705164223909378,-0.6694278717041016,-0.036817073822021484,-0.2098214328289032
1738564622.249093,0.21109655499458313,0.05774033069610596,0.11344915628433228,-0.7770861983299255,-0.36160174012184143,-0.07521282136440277
1738564622.267066,0.2530168890953064,0.028351426124572754,0.07598796486854553,-0.881175696849823,-0.4377441704273224,0.13932181894779205
1738564622.287045,0.2125515192747116,0.006765305995941162,0.013094216585159302,-0.9244471788406372,-0.015137211419641972,0.28434476256370544
1738564622.306738,0.09122221171855927,0.020128369331359863,0.07543438673019409,-1.1295390129089355,0.45161867141723633,0.1903984099626541
1738564622.326664,-0.0175771564245224,0.011774539947509766,0.17236697673797607,-1.5856449604034424,0.5534647107124329,-0.23201556503772736
1738564622.349731,0.10918790102005005,-0.04931032657623291,0.06712451577186584,-1.7170391082763672,0.46818089485168457,-0.5007204413414001
