timestamp,acc_x,acc_y,acc_z,rot_x,rot_y,rot_z
1738575919.31089,0.4226684272289276,-0.242415189743042,0.33094847202301025,-0.9024065136909485,0.35020655393600464,0.39222222566604614
1738575919.311693,0.4557383358478546,-0.2698683738708496,0.013423562049865723,-0.599926769733429,0.7893631458282471,0.761951744556427
1738575919.3185081,0.4654175937175751,-0.3470364809036255,-0.14155524969100952,-0.14534105360507965,0.8943405747413635,1.1574498414993286
1738575919.338474,0.2856258153915405,-0.34776294231414795,-0.19939595460891724,0.26723378896713257,0.7160471677780151,1.2410974502563477
1738575919.3584409,0.12329813838005066,-0.37126410007476807,-0.2865893244743347,0.7918261289596558,0.4198940694332123,1.0965149402618408
1738575919.378749,0.06075388193130493,-0.3765563368797302,-0.2890298366546631,1.2280988693237305,0.18675260245800018,1.0024607181549072
1738575919.398689,0.012296564877033234,-0.34009116888046265,-0.16939419507980347,1.370151400566101,0.2649381160736084,0.9971004724502563
1738575919.41903,-0.06676718592643738,-0.2841928005218506,-0.062660813331604,1.2533870935440063,0.4421016573905945,0.8989658355712891
1738575919.438483,-0.18382853269577026,-0.22800874710083008,-0.03794890642166138,1.1301062107086182,0.5227693319320679,0.799985408782959
1738575919.459539,-0.3238620162010193,-0.21860629320144653,-0.13183507323265076,1.2903887033462524,0.1899854689836502,0.6661158204078674
1738575919.478458,-0.43446847796440125,-0.21794557571411133,-0.190018892288208,1.6236493587493896,-0.20250733196735382,0.5281930565834045
1738575919.4985619,-0.5033729672431946,-0.1558218002319336,-0.15684664249420166,1.888689398765564,-0.4880998134613037,0.5650944113731384
1738575919.519134,-0.5808055996894836,-0.13714927434921265,-0.05949687957763672,1.9559623003005981,-0.6161722540855408,0.5750394463539124
1738575919.5383759,-0.7340887188911438,-0.10611605644226074,0.04219716787338257,1.8784831762313843,-0.7746710777282715,0.36251819133758545
1738575919.560001,-0.8661986589431763,-0.07459241151809692,0.11054524779319763,1.7084864377975464,-0.9320738315582275,-0.020160086452960968
1738575919.578222,-0.8850933313369751,-0.0334247350692749,0.16411316394805908,1.451802372932434,-1.0760170221328735,-0.3334694802761078
1738575919.598349,-0.8254108428955078,0.004479706287384033,0.17698265612125397,1.2310576438903809,-1.3271123170852661,-0.4891816973686218
1738575919.620194,-0.7933286428451538,0.08221691846847534,0.15901918709278107,1.1275185346603394,-1.7076689004898071,-0.6299711465835571
1738575919.6382241,-0.811994194984436,0.1430668830871582,0.09447109699249268,1.2238529920578003,-2.2167301177978516,-0.923198938369751
1738575919.658094,-0.7791446447372437,0.2164229154586792,0.09264171123504639,1.2831380367279053,-2.6524434089660645,-1.2061192989349365
1738575919.678185,-0.6797072887420654,0.2959681749343872,0.1542413979768753,1.2084169387817383,-2.983492374420166,-1.326699137687683
1738575919.698236,-0.590496301651001,0.3616706132888794,0.161762535572052,1.1385831832885742,-3.3710014820098877,-1.3614683151245117
1738575919.720532,-0.5446579456329346,0.43457698822021484,0.18715977668762207,0.9674496650695801,-3.728717088699341,-1.4090152978897095
1738575919.738097,-0.5789883136749268,0.4860582947731018,0.15778601169586182,0.8112651109695435,-3.9519691467285156,-1.625047206878662
1738575919.7582111,-0.5321864485740662,0.5461907982826233,0.1653071641921997,0.49314990639686584,-4.022956848144531,-1.841935157775879
1738575919.778047,-0.4690401256084442,0.6186641454696655,0.20647072792053223,0.04308963567018509,-4.062014579772949,-1.9611417055130005
1738575919.79813,-0.41691693663597107,0.6598653793334961,0.18286681175231934,-0.30856457352638245,-4.322950839996338,-2.0393435955047607
1738575919.818081,-0.4616391956806183,0.6990430355072021,0.10704243183135986,-0.5137555599212646,-4.568578243255615,-2.234722137451172
1738575919.8381572,-0.42084574699401855,0.7360156178474426,0.07713836431503296,-0.7748110294342041,-4.663987636566162,-2.340012550354004
1738575919.858218,-0.3424146771430969,0.8121118545532227,0.07922513037919998,-1.0969936847686768,-4.673305988311768,-2.259937047958374
1738575919.878251,-0.28959280252456665,0.8891141414642334,0.04550290107727051,-1.350204586982727,-4.707417011260986,-2.1205809116363525
1738575919.89822,-0.299258828163147,0.9204421043395996,0.013167575001716614,-1.526929259300232,-4.701413154602051,-2.054992914199829
1738575919.917824,-0.2782588005065918,0.9237390160560608,0.026657670736312866,-1.7775195837020874,-4.644009113311768,-1.9497032165527344
1738575919.9378738,-0.1989714801311493,0.9372175931930542,0.16087105870246887,-2.3971610069274902,-4.675817489624023,-1.6831257343292236
1738575919.9578161,-0.2352374792098999,0.9776766896247864,0.2568672001361847,-3.2692995071411133,-4.6398701667785645,-1.5622984170913696
1738575919.977624,-0.26218897104263306,0.9982144832611084,0.3176155686378479,-4.4564104080200195,-4.368352890014648,-1.515234112739563
1738575919.9978871,-0.4146503806114197,1.0984623432159424,0.2839512825012207,-5.756945610046387,-4.269027233123779,-1.6763477325439453
1738575920.017816,-0.5119814872741699,1.1873488426208496,-0.08967262506484985,-6.168813705444336,-4.181085109710693,-1.8616502285003662
1738575920.037718,-0.4350681006908417,1.1650066375732422,-0.45915669202804565,-5.739279270172119,-3.879246950149536,-1.8268765211105347
1738575920.057736,-0.26857876777648926,1.1115368604660034,-0.5975714921951294,-4.948609828948975,-3.6173360347747803,-1.4360743761062622
1738575920.078033,-0.15035922825336456,1.0053861141204834,-0.7571292519569397,-3.3544511795043945,-3.870868444442749,-0.8111612796783447
1738575920.098002,-0.09850485622882843,0.8446726202964783,-0.7701619267463684,-1.6278120279312134,-4.927029132843018,-0.040960267186164856
1738575920.117859,-0.08827429264783859,0.769545316696167,-0.5941134691238403,-0.5393346548080444,-5.798518180847168,0.759922981262207
1738575920.13782,-0.17305539548397064,0.8103915452957153,-0.37018436193466187,-0.34235286712646484,-5.803373336791992,1.2901188135147095
1738575920.157423,-0.3440782427787781,0.8588656187057495,-0.14753681421279907,-1.2115061283111572,-4.9366841316223145,1.3060270547866821
1738575920.1793761,-0.3439263701438904,0.8817322254180908,-0.09811240434646606,-2.2655789852142334,-3.6108834743499756,1.254206657409668
1738575920.197484,-0.0994950532913208,0.803969144821167,-0.23034685850143433,-2.9120285511016846,-2.8396480083465576,1.3158137798309326
1738575920.2176008,0.05160409212112427,0.8442336916923523,-0.4425067901611328,-2.9229767322540283,-2.485485315322876,1.5459010601043701
1738575920.237751,0.14124256372451782,0.7001537084579468,-0.7283012270927429,-2.0816731452941895,-2.478494644165039,1.935214877128601
1738575920.25741,0.21283578872680664,0.6763331890106201,-0.9269989132881165,-0.8698344826698303,-2.8275179862976074,2.427615165710449
1738575920.277184,0.3424343466758728,0.71757972240448,-0.9938724637031555,0.5035797953605652,-3.2934718132019043,3.1957743167877197
1738575920.297425,0.41068321466445923,0.8133832216262817,-1.116162896156311,2.1747055053710938,-3.849806547164917,4.22152853012085
1738575920.317478,0.3706153631210327,0.8447138071060181,-1.071406602859497,3.34605073928833,-4.108859539031982,5.178674221038818
1738575920.337542,0.24870651960372925,0.7884355783462524,-0.9440602660179138,3.8217482566833496,-3.6562142372131348,5.830909729003906
1738575920.357257,0.0930219292640686,0.6917220950126648,-0.9831302165985107,4.049958229064941,-3.0233497619628906,6.278522491455078
1738575920.3772411,-0.19182169437408447,0.39230436086654663,-1.0241234302520752,4.103347301483154,-1.8570585250854492,6.382686138153076
1738575920.3973532,-0.5166898965835571,0.3403644561767578,-1.0993603467941284,4.207348346710205,-0.8365139365196228,6.170650482177734
1738575920.41732,-0.6099587082862854,0.16684490442276,-1.060571312904358,3.9593966007232666,-0.34466516971588135,6.199429512023926
1738575920.437391,-1.0289595127105713,-0.13631001114845276,-1.15215265750885,4.041284561157227,0.7832649350166321,5.450000286102295
1738575920.459899,-1.431649923324585,-0.02506077289581299,-1.1850833892822266,4.305283069610596,1.8918719291687012,4.343935489654541
1738575920.477491,-1.1964590549468994,0.07486668229103088,-0.9673694968223572,4.216376781463623,2.4192445278167725,4.161586284637451
1738575920.4971418,-1.216274380683899,0.1185230016708374,-0.9461628198623657,4.51544189453125,2.5317163467407227,4.021644592285156
1738575920.518053,-1.5123603343963623,0.24350214004516602,-1.0289835929870605,5.324733257293701,2.460813283920288,3.3855857849121094
1738575920.5376558,-1.583540439605713,0.35532522201538086,-0.8038977384567261,5.670818328857422,2.4617369174957275,2.732713460922241
1738575920.556989,-1.4600248336791992,0.48046889901161194,-0.6236658096313477,5.961002826690674,2.2076008319854736,2.40043306350708
1738575920.577085,-1.3622502088546753,0.6409745216369629,-0.5886555910110474,6.523532867431641,1.7062982320785522,2.1685571670532227
1738575920.5971298,-1.3603215217590332,0.7477735280990601,-0.3547742962837219,6.5857462882995605,1.6605665683746338,1.6731005907058716
1738575920.6170878,-1.3887653350830078,0.782859742641449,-0.08027130365371704,6.267038345336914,1.6016957759857178,0.9627242088317871
1738575920.6370401,-1.214052438735962,0.7913540601730347,0.04263502359390259,6.048208236694336,0.9109144806861877,0.47676795721054077
1738575920.65722,-0.9276688098907471,0.8353122472763062,0.1063491702079773,6.022437572479248,-0.050139039754867554,0.22552496194839478
1738575920.677557,-0.6968396902084351,0.84876549243927,0.2648680806159973,5.613451957702637,0.1631908118724823,-0.09054432064294815
1738575920.696965,-0.690224826335907,0.84950190782547,0.5731098651885986,4.472533702850342,1.2632840871810913,-0.5922574996948242
1738575920.720329,-0.6790153980255127,0.7968738079071045,0.7785972356796265,3.1226723194122314,1.6474778652191162,-1.182690978050232
1738575920.737767,-0.5887223482131958,0.6983985900878906,0.7301923632621765,2.3078911304473877,1.2157889604568481,-1.789198875427246
1738575920.757154,-0.3840067386627197,0.6521371006965637,0.5728303790092468,1.989001750946045,0.5880453586578369,-2.16343355178833
1738575920.77702,-0.22327187657356262,0.6689188480377197,0.511738121509552,1.7238764762878418,0.3683949410915375,-2.3055496215820312
1738575920.796898,-0.11150693893432617,0.6497434377670288,0.4831455945968628,1.403357744216919,0.4035053551197052,-2.2945544719696045
